GCD Test
Bias: 5000.000000
IV_D0_CO142_LargeDiode_GRConnected_Irradiated_60min
Date/Time: 9/1/2021 5:19:29 PM
Sensor Name: CO141
Type: N
Annealing Status: Irradiated and Annealed at 60C for 60 minutes
Environment: -20C
Tester: Andrew Kent

Time Delay per Ramp Step (s): 0.500

CV Time Delay per Measurement (s) :0.500

AC Voltage (V): 0.500

Current Number of measurements per voltage: 4.000

IV Time Delay per Measurement (s) :0.000


BiasVoltage	Total Current_Avg	Total Current_0	Total Current_1	Total Current_2	Total Current_3	Bias Current_Avg	Bias Current_0	Bias Current_1	Bias Current_2	Bias Current_3	Temperature	Air_Temp	Humidity	Dewpoint	
    1.0000	-2.7475E-10	-1.7300E-10	-3.1900E-10	-3.3200E-10	-2.7500E-10	-2.827414E-12	-3.197304E-12	-2.809640E-12	-2.516498E-12	-2.786214E-12	  -20.0186	    8.7247	    6.9320	  -25.2965	
    2.0000	-4.7500E-11	-1.0600E-10	-1.4200E-10	1.2000E-11	4.6000E-11	1.247917E-10	1.241902E-10	1.248692E-10	1.254793E-10	1.246282E-10	  -20.0364	    8.6644	    6.9067	  -25.3815	
    3.0000	3.3950E-10	4.1100E-10	3.4400E-10	2.4800E-10	3.5500E-10	5.387839E-10	5.364839E-10	5.373809E-10	5.405194E-10	5.407515E-10	  -20.0313	    8.7344	    6.8789	  -25.3738	
    4.0000	8.7625E-10	7.8800E-10	8.2200E-10	8.6400E-10	 1.0310E-9	1.000176E-9	9.981975E-10	9.994876E-10	1.000011E-9	1.003007E-9	  -20.0287	    8.7035	    6.8640	  -25.4206	
    5.0000	 1.4230E-9	 1.3370E-9	 1.3850E-9	 1.5410E-9	 1.4290E-9	1.478815E-9	1.477854E-9	1.482442E-9	1.478956E-9	1.476009E-9	  -20.0287	    8.7234	    6.8488	  -25.4301	
    6.0000	 1.9502E-9	 1.8680E-9	 1.9130E-9	 2.0610E-9	 1.9590E-9	1.978529E-9	1.977287E-9	1.979073E-9	1.978007E-9	1.979750E-9	  -20.0415	    8.7412	    6.8305	  -25.4463	
    7.0000	 2.5170E-9	 2.5710E-9	 2.5440E-9	 2.5350E-9	 2.4180E-9	2.491417E-9	2.491808E-9	2.491825E-9	2.488808E-9	2.493228E-9	  -20.0364	    8.6778	    6.8182	  -25.5132	
    8.0000	 3.0055E-9	 3.0670E-9	 3.0960E-9	 2.8960E-9	 2.9630E-9	3.029595E-9	3.027414E-9	3.027868E-9	3.028845E-9	3.034253E-9	  -20.0160	    8.7436	    6.7840	  -25.5194	
    9.0000	 3.6660E-9	 3.5570E-9	 3.7550E-9	 3.6460E-9	 3.7060E-9	3.612833E-9	3.620889E-9	3.615632E-9	3.609777E-9	3.605032E-9	  -20.0237	    8.7239	    6.7843	  -25.5336	
   10.0000	 4.2612E-9	 4.3560E-9	 4.2920E-9	 4.2910E-9	 4.1060E-9	4.166373E-9	4.173046E-9	4.168240E-9	4.163923E-9	4.160284E-9	  -20.0186	    8.7532	    6.7717	  -25.5323	
   20.0000	 1.6700E-6	 1.6710E-6	 1.6700E-6	 1.6710E-6	 1.6680E-6	1.683789E-6	1.684793E-6	1.680250E-6	1.684968E-6	1.685146E-6	  -20.0160	    8.7553	    6.7647	  -25.5420	
   30.0000	 2.2398E-6	 2.2340E-6	 2.2550E-6	 2.2460E-6	 2.2240E-6	2.199561E-6	2.172535E-6	2.241696E-6	2.189269E-6	2.194743E-6	  -20.0262	    8.7747	    6.7562	  -25.5415	
   40.0000	 1.6937E-6	 2.7430E-6	 2.7460E-6	 1.2550E-6	 3.1000E-8	3.239632E-8	3.219225E-8	3.228646E-8	3.242969E-8	3.267689E-8	  -20.0186	    8.7956	    6.7381	  -25.5553	
   50.0000	 4.8137E-8	 4.7690E-8	 4.7940E-8	 4.8320E-8	 4.8600E-8	4.758598E-8	4.762759E-8	4.758488E-8	4.759765E-8	4.753379E-8	  -20.0084	    8.8488	    6.7283	  -25.5318	
   60.0000	 6.6655E-8	 6.6260E-8	 6.6490E-8	 6.6690E-8	 6.7180E-8	6.676678E-8	6.648713E-8	6.684088E-8	6.687647E-8	6.686264E-8	  -20.0160	    8.8341	    6.7249	  -25.5484	
   70.0000	 8.6447E-8	 8.6000E-8	 8.6530E-8	 8.6490E-8	 8.6770E-8	8.506582E-8	8.513793E-8	8.509235E-8	8.501981E-8	8.501319E-8	  -20.0160	    8.8341	    6.7268	  -25.5453	
   80.0000	 1.0908E-7	 1.0770E-7	 1.0840E-7	 1.0970E-7	 1.1050E-7	1.088028E-7	1.092582E-7	1.087878E-7	1.086094E-7	1.085558E-7	  -20.0059	    8.7766	    6.7565	  -25.5396	
   90.0000	 1.3387E-7	 1.3370E-7	 1.3400E-7	 1.3360E-7	 1.3420E-7	1.323698E-7	1.327290E-7	1.325028E-7	1.320644E-7	1.321828E-7	  -20.0008	    8.7650	    6.7549	  -25.5508	
  100.0000	 1.6073E-7	 1.6040E-7	 1.6150E-7	 1.6120E-7	 1.5980E-7	1.588907E-7	1.584807E-7	1.584965E-7	1.592227E-7	1.593630E-7	  -19.9855	    8.7650	    6.7657	  -25.5333	
  120.0000	 2.2153E-7	 2.2070E-7	 2.2100E-7	 2.2180E-7	 2.2260E-7	2.218170E-7	2.214481E-7	2.215641E-7	2.219511E-7	2.223046E-7	  -19.9880	    8.7598	    6.7622	  -25.5428	
  140.0000	 2.9685E-7	 2.9400E-7	 2.9730E-7	 2.9800E-7	 2.9810E-7	2.985105E-7	2.965772E-7	2.980519E-7	2.988221E-7	3.005908E-7	  -20.0059	    8.7543	    6.7568	  -25.5556	
  160.0000	 3.8525E-7	 3.8310E-7	 3.8510E-7	 3.8650E-7	 3.8630E-7	3.832297E-7	3.835793E-7	3.824437E-7	3.833048E-7	3.835910E-7	  -20.0008	    8.7644	    6.7657	  -25.5337	
  180.0000	 4.8133E-7	 4.7930E-7	 4.8000E-7	 4.8140E-7	 4.8460E-7	4.852434E-7	4.815984E-7	4.869676E-7	4.865511E-7	4.858566E-7	  -19.9830	    8.8317	    6.7584	  -25.4956	
  200.0000	 5.9705E-7	 5.9310E-7	 5.9780E-7	 5.9950E-7	 5.9780E-7	5.947101E-7	5.953963E-7	5.954261E-7	5.934649E-7	5.945529E-7	  -19.9830	    8.8431	    6.7596	  -25.4851	
  220.0000	 7.1698E-7	 7.0960E-7	 7.1680E-7	 7.1760E-7	 7.2390E-7	7.186378E-7	7.226975E-7	7.153284E-7	7.176612E-7	7.188642E-7	  -19.9753	    8.9036	    6.7495	  -25.4567	
  240.0000	 8.7387E-7	 8.4690E-7	 8.5710E-7	 8.6180E-7	 9.2970E-7	9.399838E-7	8.771746E-7	1.010285E-6	9.388762E-7	9.335992E-7	  -19.9702	    8.8762	    6.7362	  -25.4986	
  260.0000	 9.1653E-6	 9.1530E-6	 9.1940E-6	 9.1800E-6	 9.1340E-6	9.174417E-6	9.151028E-6	9.159985E-6	9.172357E-6	9.214299E-6	  -19.9804	    8.8852	    6.7233	  -25.5131	
  280.0000	 9.5675E-6	 9.5670E-6	 9.5600E-6	 9.5690E-6	 9.5740E-6	9.575613E-6	9.579023E-6	9.576282E-6	9.556230E-6	9.590918E-6	  -19.9753	    8.7991	    6.6992	  -25.6162	
  300.0000	 1.0033E-5	 1.0020E-5	 1.0020E-5	 1.0040E-5	 1.0050E-5	1.001803E-5	1.004474E-5	1.000002E-5	1.002604E-5	1.000134E-5	  -19.9880	    8.8210	    6.7021	  -25.5953	
  320.0000	 1.0408E-5	 1.0390E-5	 1.0400E-5	 1.0400E-5	 1.0440E-5	1.045415E-5	1.045054E-5	1.042822E-5	1.043882E-5	1.049900E-5	  -19.9880	    8.6751	    6.6828	  -25.7351	
  340.0000	 1.0862E-5	 1.0910E-5	 1.0840E-5	 1.0860E-5	 1.0840E-5	1.081675E-5	1.082217E-5	1.083358E-5	1.081373E-5	1.079751E-5	  -19.9982	    8.7870	    6.6682	  -25.6760	
  360.0000	 1.1235E-5	 1.1250E-5	 1.1220E-5	 1.1250E-5	 1.1220E-5	1.128573E-5	1.130673E-5	1.133028E-5	1.127321E-5	1.123269E-5	  -20.0084	    8.7870	    6.6591	  -25.6911	
  380.0000	 1.1640E-5	 1.1660E-5	 1.1660E-5	 1.1620E-5	 1.1620E-5	1.163714E-5	1.165174E-5	1.164878E-5	1.162522E-5	1.162283E-5	  -20.0109	    8.8481	    6.6550	  -25.6525	
  400.0000	 1.1945E-5	 1.1960E-5	 1.1910E-5	 1.1930E-5	 1.1980E-5	1.200210E-5	1.203527E-5	1.198901E-5	1.201607E-5	1.196804E-5	  -20.0059	    8.8333	    6.6401	  -25.6880	
  420.0000	 1.2393E-5	 1.2350E-5	 1.2410E-5	 1.2420E-5	 1.2390E-5	1.237815E-5	1.236262E-5	1.233382E-5	1.239444E-5	1.242174E-5	  -20.0135	    8.8254	    6.6312	  -25.7085	
  440.0000	 1.2753E-5	 1.2730E-5	 1.2770E-5	 1.2740E-5	 1.2770E-5	1.277155E-5	1.276652E-5	1.277883E-5	1.276426E-5	1.277660E-5	  -20.0059	    8.7726	    6.6195	  -25.7669	
  460.0000	 1.3142E-5	 1.3130E-5	 1.3120E-5	 1.3180E-5	 1.3140E-5	1.312429E-5	1.313828E-5	1.312365E-5	1.313521E-5	1.310004E-5	  -20.0059	    8.7597	    6.6044	  -25.8016	
  480.0000	 1.3447E-5	 1.3430E-5	 1.3440E-5	 1.3440E-5	 1.3480E-5	1.346270E-5	1.346362E-5	1.349972E-5	1.344738E-5	1.344007E-5	  -20.0084	    8.6753	    6.5784	  -25.9071	
  500.0000	 1.3748E-5	 1.3700E-5	 1.3790E-5	 1.3760E-5	 1.3740E-5	1.376478E-5	1.375835E-5	1.373503E-5	1.378156E-5	1.378416E-5	  -20.0109	    8.6890	    6.5794	  -25.8954	
  520.0000	 1.4135E-5	 1.4180E-5	 1.4100E-5	 1.4150E-5	 1.4110E-5	1.409228E-5	1.408952E-5	1.405629E-5	1.409231E-5	1.413101E-5	  -19.9906	    8.7514	    6.5825	  -25.8440	
  540.0000	 1.4590E-5	 1.4570E-5	 1.4570E-5	 1.4630E-5	 1.4590E-5	1.455129E-5	1.456309E-5	1.457141E-5	1.453269E-5	1.453797E-5	  -19.9906	    8.7508	    6.5939	  -25.8255	
  560.0000	 1.4940E-5	 1.4960E-5	 1.4940E-5	 1.4940E-5	 1.4920E-5	1.494069E-5	1.495624E-5	1.496636E-5	1.492459E-5	1.491557E-5	  -19.9906	    8.7869	    6.6078	  -25.7757	
  580.0000	 1.5323E-5	 1.5260E-5	 1.5380E-5	 1.5340E-5	 1.5310E-5	1.530970E-5	1.533623E-5	1.530996E-5	1.530476E-5	1.528784E-5	  -19.9957	    8.8119	    6.5946	  -25.7792	
  600.0000	 1.5688E-5	 1.5690E-5	 1.5720E-5	 1.5670E-5	 1.5670E-5	1.567764E-5	1.569978E-5	1.567084E-5	1.568521E-5	1.565472E-5	  -19.9804	    8.8400	    6.5920	  -25.7626	
  620.0000	 1.6102E-5	 1.6080E-5	 1.6120E-5	 1.6100E-5	 1.6110E-5	1.609488E-5	1.606601E-5	1.608298E-5	1.614485E-5	1.608570E-5	  -19.9779	    8.8071	    6.5914	  -25.7880	
  640.0000	 1.6663E-5	 1.6640E-5	 1.6690E-5	 1.6680E-5	 1.6640E-5	1.662577E-5	1.660551E-5	1.660389E-5	1.668580E-5	1.660786E-5	  -19.9906	    8.7815	    6.5867	  -25.8148	
  660.0000	 1.7083E-5	 1.7050E-5	 1.7090E-5	 1.7070E-5	 1.7120E-5	1.706913E-5	1.710765E-5	1.706896E-5	1.704007E-5	1.705986E-5	  -19.9906	    8.8276	    6.5769	  -25.7970	
  680.0000	 1.7465E-5	 1.7440E-5	 1.7430E-5	 1.7460E-5	 1.7530E-5	1.752672E-5	1.750796E-5	1.752707E-5	1.756937E-5	1.750249E-5	  -19.9804	    8.8658	    6.5721	  -25.7767	
  700.0000	 1.7792E-5	 1.7840E-5	 1.7740E-5	 1.7750E-5	 1.7840E-5	1.794488E-5	1.794557E-5	1.788964E-5	1.796337E-5	1.798094E-5	  -19.9906	    8.8348	    6.5639	  -25.8133	
  720.0000	 1.8325E-5	 1.8380E-5	 1.8350E-5	 1.8320E-5	 1.8250E-5	1.822543E-5	1.816704E-5	1.820304E-5	1.824952E-5	1.828211E-5	  -19.9906	    8.8581	    6.5623	  -25.7987	
  740.0000	 1.8700E-5	 1.8710E-5	 1.8750E-5	 1.8700E-5	 1.8640E-5	1.858748E-5	1.854896E-5	1.859302E-5	1.855072E-5	1.865720E-5	  -19.9880	    8.7778	    6.5579	  -25.8655	
  760.0000	 1.9100E-5	 1.9090E-5	 1.9060E-5	 1.9080E-5	 1.9170E-5	1.912704E-5	1.912894E-5	1.911127E-5	1.915007E-5	1.911789E-5	  -19.9855	    8.8109	    6.5636	  -25.8315	
  780.0000	 1.9493E-5	 1.9390E-5	 1.9590E-5	 1.9510E-5	 1.9480E-5	1.935880E-5	1.945607E-5	1.934308E-5	1.932314E-5	1.931290E-5	  -19.9931	    8.8169	    6.5531	  -25.8445	
  800.0000	 1.9935E-5	 1.9900E-5	 1.9930E-5	 1.9880E-5	 2.0030E-5	1.995148E-5	2.010380E-5	1.993894E-5	1.991735E-5	1.984585E-5	  -19.9906	    8.8702	    6.5544	  -25.8029	
  820.0000	 2.0268E-5	 2.0290E-5	 2.0230E-5	 2.0330E-5	 2.0220E-5	2.016629E-5	2.015678E-5	2.020192E-5	2.018337E-5	2.012309E-5	  -20.0033	    8.8576	    6.5566	  -25.8086	
  840.0000	 2.0587E-5	 2.0500E-5	 2.0600E-5	 2.0620E-5	 2.0630E-5	2.045352E-5	2.051377E-5	2.047252E-5	2.044506E-5	2.038271E-5	  -20.0033	    8.8016	    6.5455	  -25.8685	
  860.0000	 2.1032E-5	 2.1020E-5	 2.1090E-5	 2.1070E-5	 2.0950E-5	2.095752E-5	2.085540E-5	2.097549E-5	2.094636E-5	2.105283E-5	  -20.0109	    8.8123	    6.5500	  -25.8531	
  880.0000	 2.1242E-5	 2.1310E-5	 2.1260E-5	 2.1160E-5	 2.1240E-5	2.120619E-5	2.123451E-5	2.120572E-5	2.123470E-5	2.114982E-5	  -20.0033	    8.7979	    6.5550	  -25.8554	
  900.0000	 2.1688E-5	 2.1770E-5	 2.1670E-5	 2.1660E-5	 2.1650E-5	2.163980E-5	2.159082E-5	2.161815E-5	2.171657E-5	2.163364E-5	  -19.9830	    8.8006	    6.5765	  -25.8175	
  920.0000	 2.2015E-5	 2.1970E-5	 2.2050E-5	 2.1980E-5	 2.2060E-5	2.187292E-5	2.195792E-5	2.189423E-5	2.182261E-5	2.181691E-5	  -19.9906	    8.8017	    6.5658	  -25.8346	
  940.0000	 2.2298E-5	 2.2280E-5	 2.2290E-5	 2.2300E-5	 2.2320E-5	2.226932E-5	2.227682E-5	2.221157E-5	2.230180E-5	2.228708E-5	  -19.9931	    8.8188	    6.5569	  -25.8367	
  960.0000	 2.2555E-5	 2.2510E-5	 2.2530E-5	 2.2560E-5	 2.2620E-5	2.262791E-5	2.264718E-5	2.256381E-5	2.264404E-5	2.265660E-5	  -20.0084	    8.8188	    6.5443	  -25.8579	
  980.0000	 2.3005E-5	 2.2940E-5	 2.2940E-5	 2.3020E-5	 2.3120E-5	2.307317E-5	2.312392E-5	2.304061E-5	2.306661E-5	2.306155E-5	  -20.0135	    8.8089	    6.5212	  -25.9038	
 1000.0000	 2.3345E-5	 2.3410E-5	 2.3350E-5	 2.3330E-5	 2.3290E-5	2.326368E-5	2.327572E-5	2.327702E-5	2.322033E-5	2.328167E-5	  -20.0262	    8.7863	    6.5212	  -25.9206	
 1020.0000	 2.3727E-5	 2.3670E-5	 2.3770E-5	 2.3760E-5	 2.3710E-5	2.375989E-5	2.373714E-5	2.377183E-5	2.377732E-5	2.375327E-5	  -20.0211	    8.8196	    6.4981	  -25.9347	
 1040.0000	 2.4002E-5	 2.3990E-5	 2.4050E-5	 2.4040E-5	 2.3930E-5	2.389800E-5	2.386279E-5	2.389354E-5	2.389057E-5	2.394508E-5	  -20.0211	    8.7504	    6.4975	  -25.9869	
 1060.0000	 2.4347E-5	 2.4290E-5	 2.4360E-5	 2.4330E-5	 2.4410E-5	2.446707E-5	2.449345E-5	2.453670E-5	2.448182E-5	2.435630E-5	  -20.0135	    8.7729	    6.4845	  -25.9921	
 1080.0000	 2.4495E-5	 2.4440E-5	 2.4530E-5	 2.4540E-5	 2.4470E-5	2.442392E-5	2.439006E-5	2.445321E-5	2.444769E-5	2.440473E-5	  -20.0262	    8.7523	    6.4794	  -26.0158	
 1100.0000	 2.5070E-5	 2.5090E-5	 2.5140E-5	 2.5080E-5	 2.4970E-5	2.495889E-5	2.488376E-5	2.502089E-5	2.496191E-5	2.496899E-5	  -20.0160	    8.7544	    6.4794	  -26.0143	
