GCD Test
Bias: 5000.000000
CV_34340_007_PSS_HM_XX_DIODEQUARTER
Date/Time: 4/23/2021 3:16:32 PM
Sensor Name: DIODEQUARTER
Type: P
Annealing Status: Unirradiated
Environment: RT
Tester: Andrew Kent

Time Delay per Ramp Step (s): 0.500

CV Time Delay per Measurement (s) :0.500

AC Voltage (V): 0.500

Current Number of measurements per voltage: 1.000

IV Time Delay per Measurement (s) :0.000


BiasVoltage	LCR_Cp_freq1000.0	LCR_Rp_freq1000.0	Temperature	Air_Temp	Humidity	Dewpoint	
   -5.0000	1.619E-11	1.772E+9	   23.0295	   23.3486	   16.2676	   -3.6510	
  -10.0000	1.284E-11	2.595E+9	   23.0269	   23.3455	   16.2669	   -3.6539	
  -15.0000	1.123E-11	2.880E+9	   23.0295	   23.3455	   16.2625	   -3.6576	
  -20.0000	1.022E-11	2.804E+9	   23.0295	   23.3485	   16.2663	   -3.6521	
  -25.0000	9.475E-12	2.789E+9	   23.0295	   23.3511	   16.2634	   -3.6523	
  -30.0000	8.890E-12	2.905E+9	   23.0295	   23.3511	   16.2634	   -3.6523	
  -35.0000	8.349E-12	2.754E+9	   23.0295	   23.3492	   16.2685	   -3.6497	
  -40.0000	7.857E-12	2.821E+9	   23.0295	   23.3465	   16.2710	   -3.6498	
  -45.0000	7.418E-12	2.558E+9	   23.0295	   23.3469	   16.2682	   -3.6518	
  -50.0000	6.987E-12	2.905E+9	   23.0295	   23.3459	   16.2720	   -3.6495	
  -55.0000	6.685E-12	2.894E+9	   23.0295	   23.3478	   16.2732	   -3.6470	
  -60.0000	6.525E-12	2.896E+9	   23.0295	   23.3453	   16.2653	   -3.6554	
  -65.0000	6.434E-12	2.950E+9	   23.0295	   23.3440	   16.2767	   -3.6472	
  -70.0000	6.345E-12	2.528E+9	   23.0295	   23.3483	   16.2729	   -3.6468	
  -75.0000	6.162E-12	5.668E+8	   23.0295	   23.3451	   16.2786	   -3.6447	
  -80.0000	5.364E-12	2.221E+9	   23.0295	   23.3452	   16.2751	   -3.6475	
  -85.0000	5.333E-12	2.139E+9	   23.0295	   23.3453	   16.2669	   -3.6541	
  -90.0000	5.297E-12	2.185E+9	   23.0321	   23.3490	   16.2812	   -3.6395	
  -95.0000	5.268E-12	2.431E+9	   23.0295	   23.3444	   16.2837	   -3.6411	
 -100.0000	5.243E-12	2.388E+9	   23.0321	   23.3468	   16.2780	   -3.6439	
 -105.0000	5.225E-12	2.495E+9	   23.0295	   23.3452	   16.2717	   -3.6503	
 -110.0000	5.204E-12	2.399E+9	   23.0295	   23.3475	   16.2783	   -3.6430	
 -115.0000	5.193E-12	2.534E+9	   23.0295	   23.3509	   16.2897	   -3.6310	
 -120.0000	5.172E-12	2.591E+9	   23.0295	   23.3445	   16.2761	   -3.6472	
 -125.0000	5.158E-12	2.611E+9	   23.0295	   23.3446	   16.2853	   -3.6397	
 -130.0000	5.140E-12	2.689E+9	   23.0295	   23.3481	   16.2818	   -3.6397	
 -135.0000	5.128E-12	2.763E+9	   23.0295	   23.3491	   16.2783	   -3.6417	
 -140.0000	5.114E-12	2.846E+9	   23.0295	   23.3469	   16.2805	   -3.6417	
 -145.0000	5.102E-12	2.771E+9	   23.0295	   23.3510	   16.2821	   -3.6371	
 -150.0000	5.090E-12	2.834E+9	   23.0295	   23.3477	   16.2767	   -3.6442	
 -155.0000	5.076E-12	2.837E+9	   23.0295	   23.3495	   16.2821	   -3.6383	
 -160.0000	5.068E-12	2.715E+9	   23.0295	   23.3495	   16.2846	   -3.6362	
 -165.0000	5.057E-12	2.788E+9	   23.0295	   23.3495	   16.2846	   -3.6362	
 -170.0000	5.047E-12	2.825E+9	   23.0295	   23.3466	   16.2910	   -3.6334	
 -175.0000	5.038E-12	2.778E+9	   23.0295	   23.3495	   16.2875	   -3.6339	
 -180.0000	5.030E-12	3.044E+9	   23.0295	   23.3479	   16.2929	   -3.6308	
 -185.0000	5.022E-12	2.918E+9	   23.0321	   23.3499	   16.2821	   -3.6380	
 -190.0000	5.011E-12	2.769E+9	   23.0295	   23.3511	   16.2900	   -3.6305	
 -195.0000	5.003E-12	3.049E+9	   23.0295	   23.3477	   16.2948	   -3.6294	
 -200.0000	4.993E-12	2.896E+9	   23.0295	   23.3503	   16.2868	   -3.6337	
 -205.0000	4.985E-12	2.909E+9	   23.0321	   23.3507	   16.2910	   -3.6301	
 -210.0000	4.975E-12	2.922E+9	   23.0295	   23.3494	   16.2913	   -3.6309	
 -215.0000	4.968E-12	2.944E+9	   23.0295	   23.3530	   16.2992	   -3.6215	
 -220.0000	4.962E-12	3.187E+9	   23.0295	   23.3503	   16.2891	   -3.6319	
 -225.0000	4.956E-12	2.980E+9	   23.0295	   23.3471	   16.3004	   -3.6252	
 -230.0000	4.952E-12	2.907E+9	   23.0321	   23.3479	   16.2793	   -3.6419	
 -235.0000	4.947E-12	3.219E+9	   23.0321	   23.3479	   16.2793	   -3.6419	
 -240.0000	4.948E-12	2.952E+9	   23.0295	   23.3489	   16.2868	   -3.6349	
 -245.0000	4.945E-12	3.053E+9	   23.0295	   23.3489	   16.2884	   -3.6336	
 -250.0000	4.943E-12	2.962E+9	   23.0295	   23.3497	   16.2897	   -3.6320	
 -255.0000	4.942E-12	3.115E+9	   23.0321	   23.3524	   16.2910	   -3.6287	
 -260.0000	4.935E-12	3.127E+9	   23.0295	   23.3514	   16.2944	   -3.6267	
 -265.0000	4.938E-12	3.077E+9	   23.0295	   23.3497	   16.2957	   -3.6271	
 -270.0000	4.936E-12	3.110E+9	   23.0321	   23.3508	   16.2970	   -3.6251	
 -275.0000	4.934E-12	3.236E+9	   23.0321	   23.3516	   16.2919	   -3.6286	
 -280.0000	4.929E-12	3.257E+9	   23.0321	   23.3516	   16.2919	   -3.6286	
 -285.0000	4.934E-12	3.289E+9	   23.0321	   23.3537	   16.2903	   -3.6282	
 -290.0000	4.933E-12	3.016E+9	   23.0321	   23.3510	   16.2951	   -3.6265	
 -295.0000	4.931E-12	2.960E+9	   23.0321	   23.3498	   16.2960	   -3.6267	
 -300.0000	4.932E-12	3.023E+9	   23.0321	   23.3529	   16.2960	   -3.6242	
 -305.0000	4.930E-12	3.170E+9	   23.0295	   23.3500	   16.3004	   -3.6229	
 -310.0000	4.933E-12	3.217E+9	   23.0321	   23.3532	   16.2995	   -3.6211	
 -315.0000	4.930E-12	3.278E+9	   23.0321	   23.3517	   16.2906	   -3.6296	
 -320.0000	4.928E-12	3.276E+9	   23.0321	   23.3504	   16.2960	   -3.6262	
 -325.0000	4.930E-12	3.168E+9	   23.0321	   23.3511	   16.2916	   -3.6293	
 -330.0000	4.927E-12	3.206E+9	   23.0321	   23.3511	   16.2944	   -3.6269	
 -335.0000	4.927E-12	3.398E+9	   23.0321	   23.3507	   16.2894	   -3.6314	
 -340.0000	4.928E-12	3.119E+9	   23.0321	   23.3466	   16.2951	   -3.6301	
 -345.0000	4.929E-12	3.020E+9	   23.0321	   23.3519	   16.2982	   -3.6231	
 -350.0000	4.928E-12	2.889E+9	   23.0321	   23.3508	   16.2970	   -3.6251	
 -355.0000	4.928E-12	3.353E+9	   23.0321	   23.3525	   16.2998	   -3.6214	
 -360.0000	4.926E-12	3.444E+9	   23.0321	   23.3522	   16.2944	   -3.6260	
 -365.0000	4.925E-12	3.132E+9	   23.0321	   23.3528	   16.2985	   -3.6222	
 -370.0000	4.926E-12	3.164E+9	   23.0321	   23.3528	   16.2985	   -3.6222	
 -375.0000	4.924E-12	3.100E+9	   23.0321	   23.3510	   16.2948	   -3.6267	
 -380.0000	4.925E-12	3.312E+9	   23.0321	   23.3510	   16.2894	   -3.6311	
 -385.0000	4.926E-12	3.163E+9	   23.0321	   23.3564	   16.2995	   -3.6186	
 -390.0000	4.926E-12	3.240E+9	   23.0321	   23.3531	   16.2963	   -3.6237	
 -395.0000	4.926E-12	3.252E+9	   23.0321	   23.3531	   16.3058	   -3.6160	
 -400.0000	4.927E-12	3.233E+9	   23.0321	   23.3485	   16.2995	   -3.6249	
 -410.0000	4.927E-12	3.279E+9	   23.0321	   23.3491	   16.3001	   -3.6239	
 -420.0000	4.925E-12	3.263E+9	   23.0321	   23.3549	   16.2998	   -3.6195	
 -430.0000	4.923E-12	3.074E+9	   23.0321	   23.3537	   16.2992	   -3.6209	
 -440.0000	4.924E-12	3.168E+9	   23.0321	   23.3521	   16.2960	   -3.6248	
 -450.0000	4.923E-12	3.160E+9	   23.0321	   23.3504	   16.2868	   -3.6337	
 -460.0000	4.924E-12	3.124E+9	   23.0321	   23.3521	   16.2916	   -3.6285	
 -470.0000	4.919E-12	3.330E+9	   23.0321	   23.3558	   16.2881	   -3.6283	
 -480.0000	4.923E-12	3.080E+9	   23.0321	   23.3541	   16.3042	   -3.6165	
 -490.0000	4.921E-12	3.188E+9	   23.0321	   23.3502	   16.2941	   -3.6279	
 -500.0000	4.920E-12	3.160E+9	   23.0321	   23.3537	   16.2954	   -3.6240	
 -510.0000	4.921E-12	3.067E+9	   23.0321	   23.3508	   16.2970	   -3.6251	
 -520.0000	4.923E-12	3.299E+9	   23.0321	   23.3516	   16.2891	   -3.6309	
 -530.0000	4.923E-12	3.117E+9	   23.0321	   23.3517	   16.2957	   -3.6254	
 -540.0000	4.923E-12	3.288E+9	   23.0321	   23.3511	   16.2998	   -3.6225	
 -550.0000	4.920E-12	3.186E+9	   23.0321	   23.3527	   16.2913	   -3.6282	
 -560.0000	4.923E-12	3.105E+9	   23.0321	   23.3542	   16.2859	   -3.6314	
 -570.0000	4.921E-12	3.124E+9	   23.0321	   23.3513	   16.2862	   -3.6335	
 -580.0000	4.921E-12	3.192E+9	   23.0321	   23.3556	   16.2815	   -3.6339	
 -590.0000	4.922E-12	3.073E+9	   23.0347	   23.3519	   16.2916	   -3.6286	
 -600.0000	4.924E-12	3.178E+9	   23.0321	   23.3493	   16.2932	   -3.6294	
