GCD Test
Bias: 5000.000000
CV_34341_012_PSS_HM_XX_DIODEQUARTER_Irradiated
Date/Time: 9/8/2021 3:01:10 PM
Sensor Name: DIODEQUARTER
Type: P
Annealing Status: Irradiated and Annealed at 60C for 80 min
Environment: -20C
Tester: Andrew Kent

Time Delay per Ramp Step (s): 1.000

CV Time Delay per Measurement (s) :0.500

AC Voltage (V): 0.500

Current Number of measurements per voltage: 4.000

IV Time Delay per Measurement (s) :0.000


BiasVoltage	LCR_Cp_freq1000.0	LCR_Cp_freq10000.0	LCR_Rp_freq1000.0	LCR_Rp_freq10000.0	Temperature	Air_Temp	Humidity	Dewpoint	
  -10.0000	7.933E-12	4.402E-12	1.735E+7	1.033E+7	  -20.8426	    9.0281	    7.3245	  -24.4622	
  -20.0000	7.810E-12	4.394E-12	2.324E+7	1.211E+7	  -20.7892	    9.0660	    7.3185	  -24.4429	
  -30.0000	7.443E-12	4.390E-12	2.790E+7	1.390E+7	  -20.6900	    9.0773	    7.3520	  -24.3839	
  -40.0000	7.048E-12	4.404E-12	3.318E+7	1.550E+7	  -20.6519	    8.9659	    7.3659	  -24.4463	
  -50.0000	6.734E-12	4.407E-12	3.926E+7	1.684E+7	  -20.5654	    9.0010	    7.3631	  -24.4242	
  -60.0000	6.541E-12	4.407E-12	4.545E+7	1.795E+7	  -20.4535	    9.0281	    7.3457	  -24.4302	
  -70.0000	6.397E-12	4.405E-12	5.143E+7	1.902E+7	  -20.4052	    8.9788	    7.3371	  -24.4800	
  -80.0000	6.284E-12	4.403E-12	5.667E+7	2.001E+7	  -20.3390	    8.9788	    7.3318	  -24.4881	
  -90.0000	6.176E-12	4.405E-12	6.193E+7	2.087E+7	  -20.2348	    8.9926	    7.3087	  -24.5127	
 -100.0000	6.100E-12	4.407E-12	6.680E+7	2.161E+7	  -20.1636	    9.0357	    7.2862	  -24.5145	
 -110.0000	6.023E-12	4.409E-12	7.144E+7	2.224E+7	  -20.1152	    8.9616	    7.2691	  -24.5959	
 -120.0000	5.973E-12	4.423E-12	7.610E+7	2.273E+7	  -20.0389	    8.8900	    7.2413	  -24.6687	
 -130.0000	5.918E-12	4.425E-12	8.035E+7	2.310E+7	  -19.9804	    8.8651	    7.2394	  -24.7134	
 -140.0000	5.878E-12	4.428E-12	8.394E+7	2.359E+7	  -19.9423	    8.8651	    7.2343	  -24.7211	
 -150.0000	5.838E-12	4.430E-12	8.755E+7	2.392E+7	  -19.8685	    8.8180	    7.2306	  -24.7621	
 -160.0000	5.798E-12	4.431E-12	9.130E+7	2.437E+7	  -19.8278	    8.7828	    7.2340	  -24.7831	
 -170.0000	5.766E-12	4.433E-12	9.453E+7	2.468E+7	  -19.7947	    8.8261	    7.2255	  -24.7638	
 -180.0000	5.737E-12	4.433E-12	9.751E+7	2.509E+7	  -19.7591	    8.8515	    7.2192	  -24.7545	
 -190.0000	5.711E-12	4.435E-12	1.005E+8	2.540E+7	  -19.7311	    8.7900	    7.2315	  -24.7816	
 -200.0000	5.682E-12	4.438E-12	1.034E+8	2.566E+7	  -19.6981	    8.7600	    7.2290	  -24.8079	
 -210.0000	5.651E-12	4.438E-12	1.068E+8	2.601E+7	  -19.6370	    8.7784	    7.2138	  -24.8173	
 -220.0000	5.631E-12	4.438E-12	1.094E+8	2.637E+7	  -19.6345	    8.8277	    7.2135	  -24.7810	
 -230.0000	5.608E-12	4.440E-12	1.122E+8	2.665E+7	  -19.6243	    8.8419	    7.2264	  -24.7505	
 -240.0000	5.590E-12	4.441E-12	1.146E+8	2.694E+7	  -19.6090	    8.7767	    7.2226	  -24.8051	
 -250.0000	5.564E-12	4.441E-12	1.176E+8	2.731E+7	  -19.5963	    8.8726	    7.2125	  -24.7489	
 -260.0000	5.541E-12	4.443E-12	1.209E+8	2.761E+7	  -19.6167	    8.8873	    7.1803	  -24.7874	
 -270.0000	5.521E-12	4.444E-12	1.238E+8	2.788E+7	  -19.6497	    8.9324	    7.1885	  -24.7411	
 -280.0000	5.500E-12	4.445E-12	1.266E+8	2.830E+7	  -19.6650	    8.8993	    7.2008	  -24.7469	
 -290.0000	5.476E-12	4.446E-12	1.310E+8	2.854E+7	  -19.6701	    8.8990	    7.2119	  -24.7302	
 -300.0000	5.457E-12	4.446E-12	1.333E+8	2.887E+7	  -19.7006	    8.9640	    7.2122	  -24.6811	
 -310.0000	5.440E-12	4.447E-12	1.373E+8	2.921E+7	  -19.7108	    8.9926	    7.2220	  -24.6447	
 -320.0000	5.412E-12	4.448E-12	1.409E+8	2.949E+7	  -19.7311	    9.0065	    7.2391	  -24.6082	
 -330.0000	5.399E-12	4.449E-12	1.445E+8	2.984E+7	  -19.7769	    8.9750	    7.2625	  -24.5961	
 -340.0000	5.379E-12	4.450E-12	1.481E+8	3.015E+7	  -19.8176	    8.9647	    7.2385	  -24.6404	
 -350.0000	5.356E-12	4.452E-12	1.521E+8	3.046E+7	  -19.8838	    8.9206	    7.2128	  -24.7126	
 -360.0000	5.345E-12	4.451E-12	1.555E+8	3.076E+7	  -19.8965	    8.9296	    7.2021	  -24.7223	
 -370.0000	5.325E-12	4.452E-12	1.606E+8	3.109E+7	  -19.9321	    8.9781	    7.1939	  -24.6987	
 -380.0000	5.304E-12	4.453E-12	1.636E+8	3.136E+7	  -19.9499	    8.9906	    7.2195	  -24.6501	
 -390.0000	5.290E-12	4.454E-12	1.683E+8	3.169E+7	  -19.9855	    9.0462	    7.2511	  -24.5602	
 -400.0000	5.277E-12	4.453E-12	1.719E+8	3.194E+7	  -20.0313	    9.0948	    7.2830	  -24.4751	
 -410.0000	5.244E-12	4.454E-12	1.769E+8	3.227E+7	  -20.0593	    9.1017	    7.2802	  -24.4744	
 -420.0000	5.234E-12	4.456E-12	1.797E+8	3.247E+7	  -20.0771	    9.0833	    7.3087	  -24.4449	
 -430.0000	5.215E-12	4.452E-12	1.852E+8	3.280E+7	  -20.0796	    9.0885	    7.3052	  -24.4462	
 -440.0000	5.198E-12	4.452E-12	1.900E+8	3.303E+7	  -20.1051	    9.1792	    7.3428	  -24.3214	
 -450.0000	5.185E-12	4.454E-12	1.928E+8	3.317E+7	  -20.1203	    9.1465	    7.3684	  -24.3073	
 -460.0000	5.175E-12	4.454E-12	1.974E+8	3.344E+7	  -20.1279	    9.1410	    7.3934	  -24.2738	
 -470.0000	5.169E-12	4.458E-12	2.018E+8	3.365E+7	  -20.1101	    9.1332	    7.4529	  -24.1907	
 -480.0000	5.156E-12	4.458E-12	2.066E+8	3.386E+7	  -20.1076	    9.1999	    7.4564	  -24.1355	
 -490.0000	5.143E-12	4.459E-12	2.110E+8	3.407E+7	  -20.1279	    9.1598	    7.4646	  -24.1534	
 -500.0000	5.131E-12	4.459E-12	2.157E+8	3.429E+7	  -20.1483	    9.1616	    7.5218	  -24.0671	
 -510.0000	5.125E-12	4.459E-12	2.208E+8	3.441E+7	  -20.1483	    9.1811	    7.5275	  -24.0440	
 -520.0000	5.115E-12	4.461E-12	2.252E+8	3.455E+7	  -20.1407	    9.2473	    7.5734	  -23.9267	
 -530.0000	5.104E-12	4.461E-12	2.300E+8	3.473E+7	  -20.1229	    9.2215	    7.6398	  -23.8488	
 -540.0000	5.100E-12	4.462E-12	2.354E+8	3.489E+7	  -20.1203	    9.2254	    7.6417	  -23.8431	
 -550.0000	5.089E-12	4.462E-12	2.398E+8	3.504E+7	  -20.1229	    9.2129	    7.6439	  -23.8493	
 -560.0000	5.083E-12	4.462E-12	2.451E+8	3.521E+7	  -20.1127	    9.0983	    7.6619	  -23.9092	
 -570.0000	5.074E-12	4.463E-12	2.491E+8	3.530E+7	  -20.1178	    9.1396	    7.7034	  -23.8180	
 -580.0000	5.073E-12	4.463E-12	2.527E+8	3.545E+7	  -20.1076	    9.1579	    7.7166	  -23.7850	
 -590.0000	5.064E-12	4.463E-12	2.562E+8	3.553E+7	  -20.0822	    9.1459	    7.7780	  -23.7548	
 -600.0000	5.058E-12	4.464E-12	2.619E+8	3.565E+7	  -20.0923	    9.2400	    7.8030	  -23.5991	
 -610.0000	5.055E-12	4.463E-12	2.663E+8	3.576E+7	  -20.0847	    9.2498	    7.8552	  -23.5172	
 -620.0000	5.046E-12	4.464E-12	2.701E+8	3.584E+7	  -20.0872	    9.2323	    7.8593	  -23.5246	
 -630.0000	5.041E-12	4.465E-12	2.750E+8	3.592E+7	  -20.0771	    9.2353	    7.9494	  -23.3948	
 -640.0000	5.040E-12	4.465E-12	2.793E+8	3.605E+7	  -20.0771	    9.2147	    7.9557	  -23.4014	
 -650.0000	5.034E-12	4.465E-12	2.825E+8	3.610E+7	  -20.0796	    9.2181	    7.9608	  -23.3917	
 -660.0000	5.035E-12	4.466E-12	2.876E+8	3.615E+7	  -20.0669	    9.2746	    7.9807	  -23.3211	
 -670.0000	5.026E-12	4.466E-12	2.924E+8	3.620E+7	  -20.0618	    9.2922	    8.0557	  -23.2031	
 -680.0000	5.023E-12	4.466E-12	2.944E+8	3.625E+7	  -20.0542	    9.2922	    8.0756	  -23.1754	
 -690.0000	5.021E-12	4.465E-12	2.978E+8	3.637E+7	  -20.0364	    9.2486	    8.1635	  -23.0868	
 -700.0000	5.018E-12	4.466E-12	3.023E+8	3.642E+7	  -20.0313	    9.2768	    8.1875	  -23.0325	
 -710.0000	5.017E-12	4.466E-12	3.045E+8	3.644E+7	  -20.0287	    9.2777	    8.2388	  -22.9618	
 -720.0000	5.015E-12	4.467E-12	3.110E+8	3.650E+7	  -20.0262	    9.2745	    8.2764	  -22.9130	
 -730.0000	5.011E-12	4.468E-12	3.132E+8	3.649E+7	  -20.0008	    9.2414	    8.2919	  -22.9170	
 -740.0000	5.008E-12	4.468E-12	3.182E+8	3.653E+7	  -19.9957	    9.2557	    8.2653	  -22.9422	
 -750.0000	5.008E-12	4.468E-12	3.216E+8	3.658E+7	  -19.9830	    9.2675	    8.2682	  -22.9294	
 -760.0000	5.004E-12	4.468E-12	3.253E+8	3.659E+7	  -19.9677	    9.2756	    8.3425	  -22.8226	
 -770.0000	5.004E-12	4.468E-12	3.269E+8	3.662E+7	  -19.9652	    9.2940	    8.3975	  -22.7347	
 -780.0000	5.002E-12	4.468E-12	3.306E+8	3.663E+7	  -19.9524	    9.3232	    8.4598	  -22.6292	
 -790.0000	4.999E-12	4.469E-12	3.344E+8	3.666E+7	  -19.9448	    9.2904	    8.5357	  -22.5535	
 -800.0000	5.003E-12	4.469E-12	3.385E+8	3.666E+7	  -19.9321	    9.3223	    8.5670	  -22.4879	
 -810.0000	4.999E-12	4.469E-12	3.391E+8	3.668E+7	  -19.9245	    9.3083	    8.6018	  -22.4528	
 -820.0000	4.996E-12	4.470E-12	3.403E+8	3.665E+7	  -19.9168	    9.2951	    8.6360	  -22.4197	
 -830.0000	4.998E-12	4.471E-12	3.409E+8	3.669E+7	  -19.9168	    9.2749	    8.6546	  -22.4091	
 -840.0000	4.993E-12	4.469E-12	3.473E+8	3.671E+7	  -19.9168	    9.3226	    8.6885	  -22.3287	
 -850.0000	4.996E-12	4.470E-12	3.500E+8	3.667E+7	  -19.9219	    9.3004	    8.7211	  -22.3033	
 -860.0000	4.991E-12	4.471E-12	3.514E+8	3.667E+7	  -19.9219	    9.3439	    8.7815	  -22.1921	
 -870.0000	4.993E-12	4.471E-12	3.521E+8	3.668E+7	  -19.9194	    9.3250	    8.8074	  -22.1731	
 -880.0000	4.995E-12	4.471E-12	3.564E+8	3.670E+7	  -19.9295	    9.2949	    8.9159	  -22.0574	
 -890.0000	4.994E-12	4.472E-12	3.558E+8	3.670E+7	  -19.9372	    9.2786	    9.0829	  -21.8595	
 -900.0000	4.990E-12	4.472E-12	3.575E+8	3.666E+7	  -19.9397	    9.3158	    9.1727	  -21.7192	
 -910.0000	4.992E-12	4.472E-12	3.590E+8	3.663E+7	  -19.9397	    9.3158	    9.2109	  -21.6718	
 -920.0000	4.990E-12	4.473E-12	3.589E+8	3.662E+7	  -19.9473	    9.3619	    9.2027	  -21.6467	
 -930.0000	4.991E-12	4.473E-12	3.617E+8	3.663E+7	  -19.9473	    9.3336	    9.2226	  -21.6438	
 -940.0000	4.992E-12	4.472E-12	3.626E+8	3.659E+7	  -19.9397	    9.3495	    9.2508	  -21.5970	
 -950.0000	4.987E-12	4.474E-12	3.612E+8	3.656E+7	  -19.9194	    9.3308	    9.2685	  -21.5895	
 -960.0000	4.993E-12	4.473E-12	3.654E+8	3.659E+7	  -19.8736	    9.3123	    9.3090	  -21.5541	
 -970.0000	4.990E-12	4.471E-12	3.609E+8	3.656E+7	  -19.8609	    9.3258	    9.3397	  -21.5063	
 -980.0000	4.993E-12	4.472E-12	3.635E+8	3.652E+7	  -19.8481	    9.3555	    9.3798	  -21.4346	
 -990.0000	4.990E-12	4.473E-12	3.606E+8	3.647E+7	  -19.8100	    9.3703	    9.4298	  -21.3627	
-1000.0000	4.988E-12	4.474E-12	3.640E+8	3.647E+7	  -19.7845	    9.3609	    9.4643	  -21.3283	
