GCD Test
Bias: 5000.000000
IV_34340_039_PSS_HM_XX_DIODEQUARTER_Irradiated
Date/Time: 7/2/2021 12:52:45 PM
Sensor Name: DIODEQUARTER
Type: P
Annealing Status: Irradiated and Annealed
Environment: -20C
Tester: Andrew Kent

Time Delay per Ramp Step (s): 1.000

CV Time Delay per Measurement (s) :0.500

AC Voltage (V): 0.500

Current Number of measurements per voltage: 4.000

IV Time Delay per Measurement (s) :0.000


BiasVoltage	Total Current_Avg	Total Current_0	Total Current_1	Total Current_2	Total Current_3	Bias Current_Avg	Bias Current_0	Bias Current_1	Bias Current_2	Bias Current_3	Temperature	Air_Temp	Humidity	Dewpoint	
  -10.0000	-1.0340E-7	-1.0350E-7	-1.0370E-7	-1.0310E-7	-1.0330E-7	-1.043213E-7	-1.043451E-7	-1.040409E-7	-1.042901E-7	-1.046089E-7	  -20.7205	   10.7388	    5.0670	  -27.2379	
  -20.0000	-1.3983E-7	-1.4070E-7	-1.4040E-7	-1.3960E-7	-1.3860E-7	-1.402285E-7	-1.389197E-7	-1.404557E-7	-1.413548E-7	-1.401836E-7	  -20.7867	   10.7556	    5.0231	  -27.3199	
  -30.0000	-1.6755E-7	-1.6770E-7	-1.6750E-7	-1.6690E-7	-1.6810E-7	-1.659861E-7	-1.671130E-7	-1.662973E-7	-1.657719E-7	-1.647622E-7	  -20.8273	   10.7864	    4.9766	  -27.3981	
  -40.0000	-1.8812E-7	-1.8890E-7	-1.8830E-7	-1.8770E-7	-1.8760E-7	-1.898444E-7	-1.878857E-7	-1.891297E-7	-1.910062E-7	-1.913558E-7	  -20.8833	   10.7057	    4.9035	  -27.6151	
  -50.0000	-2.0755E-7	-2.0780E-7	-2.0740E-7	-2.0740E-7	-2.0760E-7	-2.075121E-7	-2.080367E-7	-2.080456E-7	-2.068006E-7	-2.071656E-7	  -20.8833	   10.7057	    4.8741	  -27.6798	
  -60.0000	-2.2457E-7	-2.2540E-7	-2.2380E-7	-2.2340E-7	-2.2570E-7	-2.261961E-7	-2.279245E-7	-2.262687E-7	-2.253581E-7	-2.252330E-7	  -20.8807	   10.7061	    4.8270	  -27.7840	
  -70.0000	-2.4095E-7	-2.3970E-7	-2.4090E-7	-2.4180E-7	-2.4140E-7	-2.408496E-7	-2.396780E-7	-2.407225E-7	-2.419486E-7	-2.410494E-7	  -20.8655	   10.7099	    4.7514	  -27.9506	
  -80.0000	-2.5670E-7	-2.5690E-7	-2.5580E-7	-2.5560E-7	-2.5850E-7	-2.595536E-7	-2.581687E-7	-2.596628E-7	-2.602752E-7	-2.601076E-7	  -20.8248	   10.7099	    4.7141	  -28.0351	
  -90.0000	-2.7257E-7	-2.7200E-7	-2.7280E-7	-2.7240E-7	-2.7310E-7	-2.722113E-7	-2.722274E-7	-2.718801E-7	-2.728099E-7	-2.719278E-7	  -20.7358	   10.7195	    4.6752	  -28.1171	
 -100.0000	-2.8785E-7	-2.8860E-7	-2.8790E-7	-2.8790E-7	-2.8700E-7	-2.872154E-7	-2.872345E-7	-2.867020E-7	-2.860467E-7	-2.888784E-7	  -20.6773	   10.6865	    4.6268	  -28.2519	
 -110.0000	-3.0147E-7	-2.9870E-7	-3.0020E-7	-3.0270E-7	-3.0430E-7	-3.041153E-7	-3.052179E-7	-3.043220E-7	-3.018150E-7	-3.051064E-7	  -20.6290	   10.7217	    4.5949	  -28.3009	
 -120.0000	-3.1653E-7	-3.1680E-7	-3.1700E-7	-3.1540E-7	-3.1690E-7	-3.179913E-7	-3.186747E-7	-3.190916E-7	-3.172561E-7	-3.169426E-7	  -20.4942	   10.7124	    4.5557	  -28.3991	
 -130.0000	-3.3013E-7	-3.2920E-7	-3.2870E-7	-3.3040E-7	-3.3220E-7	-3.323516E-7	-3.320000E-7	-3.326416E-7	-3.311047E-7	-3.336602E-7	  -20.4255	   10.7165	    4.5332	  -28.4489	
 -140.0000	-3.4513E-7	-3.4380E-7	-3.4520E-7	-3.4630E-7	-3.4520E-7	-3.474614E-7	-3.483065E-7	-3.478478E-7	-3.441613E-7	-3.495301E-7	  -20.2831	   10.7543	    4.4775	  -28.5538	
 -150.0000	-3.6020E-7	-3.5880E-7	-3.5940E-7	-3.5950E-7	-3.6310E-7	-3.615779E-7	-3.591945E-7	-3.611401E-7	-3.630560E-7	-3.629210E-7	  -20.2246	   10.7543	    4.4652	  -28.5832	
 -160.0000	-3.7665E-7	-3.7190E-7	-3.7610E-7	-3.7850E-7	-3.8010E-7	-3.797490E-7	-3.821340E-7	-3.794373E-7	-3.785298E-7	-3.788950E-7	  -20.1203	   10.8053	    4.4393	  -28.6091	
 -170.0000	-3.9090E-7	-3.9000E-7	-3.9090E-7	-3.9230E-7	-3.9040E-7	-3.932429E-7	-3.924909E-7	-3.916497E-7	-3.927729E-7	-3.960583E-7	  -20.0287	   10.7622	    4.4187	  -28.6892	
 -180.0000	-4.0195E-7	-4.0270E-7	-4.0390E-7	-4.0060E-7	-4.0060E-7	-4.002835E-7	-4.000690E-7	-3.994668E-7	-3.999724E-7	-4.016258E-7	  -19.8990	   10.7714	    4.3703	  -28.7999	
 -190.0000	-4.1622E-7	-4.1550E-7	-4.1680E-7	-4.1560E-7	-4.1700E-7	-4.162535E-7	-4.159214E-7	-4.170369E-7	-4.164532E-7	-4.156024E-7	  -19.8583	   10.7714	    4.3681	  -28.8053	
 -200.0000	-4.3180E-7	-4.3330E-7	-4.3020E-7	-4.3250E-7	-4.3120E-7	-4.296970E-7	-4.275317E-7	-4.278786E-7	-4.309247E-7	-4.324529E-7	  -19.7744	   10.7439	    4.3485	  -28.8726	
 -210.0000	-4.4107E-7	-4.4220E-7	-4.4270E-7	-4.4000E-7	-4.3940E-7	-4.421878E-7	-4.419386E-7	-4.416945E-7	-4.417257E-7	-4.433925E-7	  -19.7159	   10.7830	    4.3381	  -28.8704	
 -220.0000	-4.5133E-7	-4.4800E-7	-4.5100E-7	-4.5450E-7	-4.5180E-7	-4.488609E-7	-4.480615E-7	-4.497160E-7	-4.495280E-7	-4.481379E-7	  -19.6192	   10.7599	    4.2982	  -28.9848	
 -230.0000	-4.6032E-7	-4.5840E-7	-4.6120E-7	-4.6050E-7	-4.6120E-7	-4.624535E-7	-4.599381E-7	-4.587363E-7	-4.651616E-7	-4.659779E-7	  -19.5836	   10.7599	    4.2812	  -29.0271	
 -240.0000	-4.7015E-7	-4.7410E-7	-4.6920E-7	-4.6860E-7	-4.6870E-7	-4.682610E-7	-4.687048E-7	-4.654316E-7	-4.690366E-7	-4.698709E-7	  -19.5505	   10.7363	    4.2682	  -29.0759	
 -250.0000	-4.7635E-7	-4.7380E-7	-4.7570E-7	-4.7830E-7	-4.7760E-7	-4.762945E-7	-4.756766E-7	-4.761036E-7	-4.763290E-7	-4.770687E-7	  -19.5429	   10.7436	    4.2638	  -29.0818	
 -260.0000	-4.8335E-7	-4.8470E-7	-4.8340E-7	-4.8230E-7	-4.8300E-7	-4.848820E-7	-4.853127E-7	-4.862436E-7	-4.855846E-7	-4.823871E-7	  -19.5327	   10.7714	    4.2502	  -29.0960	
 -270.0000	-4.9287E-7	-4.9260E-7	-4.9530E-7	-4.9270E-7	-4.9090E-7	-4.896376E-7	-4.889052E-7	-4.889786E-7	-4.892451E-7	-4.914216E-7	  -19.5302	   10.7714	    4.2590	  -29.0739	
 -280.0000	-5.0165E-7	-5.0330E-7	-5.0400E-7	-4.9950E-7	-4.9980E-7	-4.973747E-7	-5.019933E-7	-4.956258E-7	-4.970707E-7	-4.948089E-7	  -19.5276	   10.7933	    4.2634	  -29.0475	
 -290.0000	-5.0985E-7	-5.0930E-7	-5.1060E-7	-5.0870E-7	-5.1080E-7	-5.078185E-7	-5.078976E-7	-5.050652E-7	-5.112209E-7	-5.070905E-7	  -19.5734	   10.7612	    4.2533	  -29.0954	
 -300.0000	-5.1158E-7	-5.1350E-7	-5.1320E-7	-5.1030E-7	-5.0930E-7	-5.075494E-7	-5.090141E-7	-5.074481E-7	-5.096094E-7	-5.041261E-7	  -19.5836	   10.7458	    4.2280	  -29.1695	
 -310.0000	-5.1655E-7	-5.1650E-7	-5.2110E-7	-5.1450E-7	-5.1410E-7	-5.144383E-7	-5.160509E-7	-5.163246E-7	-5.148839E-7	-5.104938E-7	  -19.6243	   10.6950	    4.2147	  -29.2387	
 -320.0000	-5.1975E-7	-5.1990E-7	-5.1770E-7	-5.1950E-7	-5.2190E-7	-5.162539E-7	-5.197385E-7	-5.145073E-7	-5.158232E-7	-5.149465E-7	  -19.6624	   10.7068	    4.2198	  -29.2177	
 -330.0000	-5.2538E-7	-5.2430E-7	-5.2610E-7	-5.2760E-7	-5.2350E-7	-5.226268E-7	-5.227800E-7	-5.232931E-7	-5.244407E-7	-5.199936E-7	  -19.6981	   10.7345	    4.2043	  -29.2371	
 -340.0000	-5.2738E-7	-5.2870E-7	-5.2750E-7	-5.2710E-7	-5.2620E-7	-5.279360E-7	-5.288603E-7	-5.297820E-7	-5.265564E-7	-5.265452E-7	  -19.7820	   10.7773	    4.1679	  -29.2989	
 -350.0000	-5.3233E-7	-5.3280E-7	-5.3320E-7	-5.2940E-7	-5.3390E-7	-5.333532E-7	-5.352251E-7	-5.320736E-7	-5.315662E-7	-5.345480E-7	  -19.8227	   10.7773	    4.1645	  -29.3077	
 -360.0000	-5.3528E-7	-5.3940E-7	-5.3460E-7	-5.3170E-7	-5.3540E-7	-5.312087E-7	-5.337914E-7	-5.302466E-7	-5.286743E-7	-5.321225E-7	  -19.8583	   10.8143	    4.1486	  -29.3220	
 -370.0000	-5.3447E-7	-5.3590E-7	-5.3140E-7	-5.3320E-7	-5.3740E-7	-5.374992E-7	-5.373585E-7	-5.407582E-7	-5.365870E-7	-5.352932E-7	  -19.9372	   10.7841	    4.1553	  -29.3263	
 -380.0000	-5.4020E-7	-5.4100E-7	-5.3880E-7	-5.4130E-7	-5.3970E-7	-5.385293E-7	-5.404877E-7	-5.391377E-7	-5.371705E-7	-5.373212E-7	  -19.9753	   10.7627	    4.1471	  -29.3623	
 -390.0000	-5.4775E-7	-5.5070E-7	-5.4810E-7	-5.4780E-7	-5.4440E-7	-5.445044E-7	-5.415034E-7	-5.445799E-7	-5.469860E-7	-5.449483E-7	  -20.0059	   10.7535	    4.1531	  -29.3535	
 -400.0000	-5.5098E-7	-5.5270E-7	-5.5000E-7	-5.5270E-7	-5.4850E-7	-5.483921E-7	-5.489732E-7	-5.490978E-7	-5.469083E-7	-5.485891E-7	  -20.0542	   10.8039	    4.1354	  -29.3632	
 -410.0000	-5.4852E-7	-5.5210E-7	-5.5010E-7	-5.4640E-7	-5.4550E-7	-5.499682E-7	-5.479575E-7	-5.481921E-7	-5.522951E-7	-5.514281E-7	  -20.1229	   10.8492	    4.1521	  -29.2885	
 -420.0000	-5.5965E-7	-5.6710E-7	-5.6240E-7	-5.5440E-7	-5.5470E-7	-5.555822E-7	-5.595875E-7	-5.591420E-7	-5.540280E-7	-5.495714E-7	  -20.1330	   10.8542	    4.1208	  -29.3651	
 -430.0000	-5.5738E-7	-5.5490E-7	-5.5660E-7	-5.5850E-7	-5.5950E-7	-5.584973E-7	-5.566419E-7	-5.577062E-7	-5.609519E-7	-5.586893E-7	  -20.1763	   10.8479	    4.1167	  -29.3801	
 -440.0000	-5.6458E-7	-5.6610E-7	-5.6210E-7	-5.6440E-7	-5.6570E-7	-5.636413E-7	-5.655098E-7	-5.632868E-7	-5.625858E-7	-5.631827E-7	  -20.1839	   10.8444	    4.0939	  -29.4412	
 -450.0000	-5.6822E-7	-5.6680E-7	-5.6980E-7	-5.6810E-7	-5.6820E-7	-5.673063E-7	-5.676853E-7	-5.675788E-7	-5.689495E-7	-5.650114E-7	  -20.2297	   10.8163	    4.0655	  -29.5347	
 -460.0000	-5.7148E-7	-5.6920E-7	-5.7180E-7	-5.7140E-7	-5.7350E-7	-5.726172E-7	-5.727560E-7	-5.715114E-7	-5.749557E-7	-5.712456E-7	  -20.2475	   10.8163	    4.0623	  -29.5429	
 -470.0000	-5.7822E-7	-5.7810E-7	-5.7730E-7	-5.7780E-7	-5.7970E-7	-5.781328E-7	-5.807216E-7	-5.796479E-7	-5.753412E-7	-5.768207E-7	  -20.2602	   10.8717	    4.0534	  -29.5270	
 -480.0000	-5.8320E-7	-5.7970E-7	-5.8260E-7	-5.8330E-7	-5.8720E-7	-5.811866E-7	-5.811902E-7	-5.796925E-7	-5.852470E-7	-5.786166E-7	  -20.2551	   10.8936	    4.0528	  -29.5133	
 -490.0000	-5.9597E-7	-5.9620E-7	-5.9820E-7	-5.9310E-7	-5.9640E-7	-5.906336E-7	-5.971127E-7	-5.908461E-7	-5.882189E-7	-5.863566E-7	  -20.2653	   10.9183	    4.0484	  -29.5075	
 -500.0000	-5.9515E-7	-5.9700E-7	-5.9300E-7	-5.9750E-7	-5.9310E-7	-5.891905E-7	-5.902884E-7	-5.891936E-7	-5.877009E-7	-5.895791E-7	  -20.2500	   10.8797	    4.0440	  -29.5461	
 -510.0000	-6.0080E-7	-6.0270E-7	-5.9950E-7	-6.0020E-7	-6.0080E-7	-5.961643E-7	-5.999986E-7	-5.942952E-7	-5.955085E-7	-5.948548E-7	  -20.2475	   10.8704	    4.0319	  -29.5841	
 -520.0000	-6.0617E-7	-6.0220E-7	-6.0550E-7	-6.0790E-7	-6.0910E-7	-6.069383E-7	-6.066708E-7	-6.066054E-7	-6.080534E-7	-6.064237E-7	  -20.2424	   10.8700	    4.0269	  -29.5976	
 -530.0000	-6.0973E-7	-6.1290E-7	-6.1020E-7	-6.0840E-7	-6.0740E-7	-6.108367E-7	-6.108023E-7	-6.088556E-7	-6.118404E-7	-6.118483E-7	  -20.2170	   10.8688	    4.0139	  -29.6326	
 -540.0000	-6.1520E-7	-6.1160E-7	-6.1200E-7	-6.1460E-7	-6.2260E-7	-6.212301E-7	-6.196753E-7	-6.215111E-7	-6.203359E-7	-6.233980E-7	  -20.2119	   10.9370	    4.0127	  -29.5880	
 -550.0000	-6.2575E-7	-6.2670E-7	-6.2630E-7	-6.2630E-7	-6.2370E-7	-6.262788E-7	-6.247457E-7	-6.276110E-7	-6.258468E-7	-6.269117E-7	  -20.1941	   10.8966	    4.0247	  -29.5848	
 -560.0000	-6.3027E-7	-6.2870E-7	-6.3020E-7	-6.3060E-7	-6.3160E-7	-6.338611E-7	-6.289353E-7	-6.331927E-7	-6.375321E-7	-6.357843E-7	  -20.1661	   10.8844	    4.0465	  -29.5363	
 -570.0000	-6.3850E-7	-6.3360E-7	-6.3760E-7	-6.4240E-7	-6.4040E-7	-6.409529E-7	-6.410625E-7	-6.413498E-7	-6.406827E-7	-6.407168E-7	  -20.1254	   10.9024	    4.0446	  -29.5285	
 -580.0000	-6.4330E-7	-6.4040E-7	-6.4420E-7	-6.4580E-7	-6.4280E-7	-6.468532E-7	-6.446659E-7	-6.474455E-7	-6.473057E-7	-6.479956E-7	  -20.1076	   10.9024	    4.0427	  -29.5335	
 -590.0000	-6.5147E-7	-6.5150E-7	-6.5180E-7	-6.5450E-7	-6.4810E-7	-6.483416E-7	-6.461333E-7	-6.460021E-7	-6.504927E-7	-6.507383E-7	  -20.0593	   10.8951	    4.0468	  -29.5279	
 -600.0000	-6.5903E-7	-6.5850E-7	-6.6030E-7	-6.5960E-7	-6.5770E-7	-6.568588E-7	-6.569385E-7	-6.560768E-7	-6.555964E-7	-6.588235E-7	  -20.0465	   10.8714	    4.0493	  -29.5379	
 -610.0000	-6.6297E-7	-6.5960E-7	-6.6340E-7	-6.6520E-7	-6.6370E-7	-6.664516E-7	-6.654739E-7	-6.701226E-7	-6.652193E-7	-6.649905E-7	  -20.0084	   10.8086	    4.0417	  -29.6019	
 -620.0000	-6.6800E-7	-6.6940E-7	-6.6990E-7	-6.6540E-7	-6.6730E-7	-6.729399E-7	-6.731935E-7	-6.740052E-7	-6.735339E-7	-6.710270E-7	  -20.0008	   10.7670	    4.0335	  -29.6526	
 -630.0000	-6.7945E-7	-6.7500E-7	-6.8050E-7	-6.8180E-7	-6.8050E-7	-6.811295E-7	-6.778277E-7	-6.811831E-7	-6.845749E-7	-6.809323E-7	  -19.9728	   10.7753	    4.0164	  -29.6916	
 -640.0000	-6.8232E-7	-6.7870E-7	-6.8260E-7	-6.8430E-7	-6.8370E-7	-6.879102E-7	-6.859588E-7	-6.887032E-7	-6.925960E-7	-6.843829E-7	  -19.9423	   10.8098	    4.0212	  -29.6549	
 -650.0000	-6.9288E-7	-6.9590E-7	-6.9830E-7	-6.8840E-7	-6.8890E-7	-6.851907E-7	-6.880566E-7	-6.857426E-7	-6.839261E-7	-6.830374E-7	  -19.9117	   10.8613	    3.9991	  -29.6770	
 -660.0000	-6.9970E-7	-6.9830E-7	-6.9510E-7	-6.9750E-7	-7.0790E-7	-6.989043E-7	-7.061266E-7	-6.978377E-7	-6.953199E-7	-6.963331E-7	  -19.9016	   10.8774	    3.9848	  -29.7033	
 -670.0000	-7.0465E-7	-7.0440E-7	-7.0260E-7	-7.0740E-7	-7.0420E-7	-7.028524E-7	-7.011885E-7	-7.042490E-7	-7.023879E-7	-7.035842E-7	  -19.8761	   10.9120	    3.9788	  -29.6949	
 -680.0000	-7.0675E-7	-7.0700E-7	-7.0800E-7	-7.0720E-7	-7.0480E-7	-7.020174E-7	-6.987261E-7	-7.029489E-7	-7.048268E-7	-7.015677E-7	  -19.8609	   10.9113	    3.9627	  -29.7382	
 -690.0000	-7.1230E-7	-7.1490E-7	-7.1260E-7	-7.1120E-7	-7.1050E-7	-7.112858E-7	-7.141664E-7	-7.140948E-7	-7.083297E-7	-7.085525E-7	  -19.8405	   10.8982	    3.9304	  -29.8336	
 -700.0000	-7.1445E-7	-7.1250E-7	-7.1510E-7	-7.1580E-7	-7.1440E-7	-7.130645E-7	-7.103524E-7	-7.121791E-7	-7.144164E-7	-7.153099E-7	  -19.8481	   10.8982	    3.9285	  -29.8387	
 -710.0000	-7.1490E-7	-7.1340E-7	-7.1370E-7	-7.1300E-7	-7.1950E-7	-7.205319E-7	-7.166055E-7	-7.175184E-7	-7.219568E-7	-7.260468E-7	  -19.8431	   10.9228	    3.9257	  -29.8290	
 -720.0000	-7.2430E-7	-7.2500E-7	-7.2570E-7	-7.2200E-7	-7.2450E-7	-7.270712E-7	-7.259187E-7	-7.274776E-7	-7.285369E-7	-7.263515E-7	  -19.8481	   10.9029	    3.9200	  -29.8583	
 -730.0000	-7.2495E-7	-7.3210E-7	-7.2290E-7	-7.2170E-7	-7.2310E-7	-7.190383E-7	-7.217436E-7	-7.175078E-7	-7.156424E-7	-7.212595E-7	  -19.8405	   10.8892	    3.9092	  -29.8968	
 -740.0000	-7.3102E-7	-7.3280E-7	-7.3160E-7	-7.3140E-7	-7.2830E-7	-7.249132E-7	-7.237547E-7	-7.206375E-7	-7.260263E-7	-7.292342E-7	  -19.8609	   10.8684	    3.8985	  -29.9403	
 -750.0000	-7.2935E-7	-7.3300E-7	-7.3210E-7	-7.2500E-7	-7.2730E-7	-7.322807E-7	-7.292961E-7	-7.298013E-7	-7.391154E-7	-7.309100E-7	  -19.8710	   10.8637	    3.8896	  -29.9675	
 -760.0000	-7.3658E-7	-7.3790E-7	-7.3760E-7	-7.3370E-7	-7.3710E-7	-7.311754E-7	-7.328445E-7	-7.296587E-7	-7.301895E-7	-7.320090E-7	  -19.8787	   10.8565	    3.8937	  -29.9615	
 -770.0000	-7.4290E-7	-7.4020E-7	-7.4300E-7	-7.4450E-7	-7.4390E-7	-7.461292E-7	-7.410108E-7	-7.446307E-7	-7.491512E-7	-7.497241E-7	  -19.8939	   10.9161	    3.8773	  -29.9643	
 -780.0000	-7.5070E-7	-7.5040E-7	-7.4890E-7	-7.5360E-7	-7.4990E-7	-7.440425E-7	-7.440181E-7	-7.429109E-7	-7.453567E-7	-7.438842E-7	  -19.8965	   10.9087	    3.8795	  -29.9634	
 -790.0000	-7.4462E-7	-7.5200E-7	-7.4100E-7	-7.4130E-7	-7.4420E-7	-7.461001E-7	-7.434068E-7	-7.465930E-7	-7.469847E-7	-7.474157E-7	  -19.9143	   10.9030	    3.8713	  -29.9898	
 -800.0000	-7.4710E-7	-7.4910E-7	-7.4600E-7	-7.4910E-7	-7.4420E-7	-7.417633E-7	-7.409827E-7	-7.409897E-7	-7.412565E-7	-7.438244E-7	  -19.9423	   10.9412	    3.8653	  -29.9794	
 -810.0000	-7.4987E-7	-7.4780E-7	-7.5220E-7	-7.4750E-7	-7.5200E-7	-7.463925E-7	-7.495167E-7	-7.464267E-7	-7.445996E-7	-7.450270E-7	  -19.9473	   10.9346	    3.8697	  -29.9720	
 -820.0000	-7.5223E-7	-7.5660E-7	-7.5300E-7	-7.5190E-7	-7.4740E-7	-7.444462E-7	-7.488121E-7	-7.459045E-7	-7.428516E-7	-7.402167E-7	  -19.9524	   10.9667	    3.8643	  -29.9641	
 -830.0000	-7.5410E-7	-7.5770E-7	-7.5310E-7	-7.5260E-7	-7.5300E-7	-7.553237E-7	-7.553478E-7	-7.561082E-7	-7.569980E-7	-7.528406E-7	  -20.0033	   10.9758	    3.8684	  -29.9466	
 -840.0000	-7.6038E-7	-7.6070E-7	-7.5860E-7	-7.6100E-7	-7.6120E-7	-7.587329E-7	-7.580678E-7	-7.563651E-7	-7.611491E-7	-7.593497E-7	  -20.0160	   10.9364	    3.8760	  -29.9535	
 -850.0000	-7.6223E-7	-7.6370E-7	-7.5990E-7	-7.6110E-7	-7.6420E-7	-7.642871E-7	-7.628425E-7	-7.652435E-7	-7.670304E-7	-7.620321E-7	  -20.0440	   10.9382	    3.8725	  -29.9617	
 -860.0000	-7.6815E-7	-7.6510E-7	-7.7120E-7	-7.6920E-7	-7.6710E-7	-7.675769E-7	-7.651515E-7	-7.661952E-7	-7.672193E-7	-7.717415E-7	  -20.0542	   10.9759	    3.8574	  -29.9767	
 -870.0000	-7.7173E-7	-7.7380E-7	-7.7220E-7	-7.7280E-7	-7.6810E-7	-7.703317E-7	-7.691983E-7	-7.693987E-7	-7.682740E-7	-7.744559E-7	  -20.0516	   10.9524	    3.8510	  -30.0103	
 -880.0000	-7.7173E-7	-7.6880E-7	-7.7120E-7	-7.7310E-7	-7.7380E-7	-7.725359E-7	-7.731845E-7	-7.680800E-7	-7.733246E-7	-7.755545E-7	  -20.0771	   10.9714	    3.8428	  -30.0196	
 -890.0000	-7.7580E-7	-7.8100E-7	-7.7780E-7	-7.7470E-7	-7.6970E-7	-7.723668E-7	-7.721218E-7	-7.717640E-7	-7.718900E-7	-7.736915E-7	  -20.0796	   10.9648	    3.8276	  -30.0658	
 -900.0000	-7.7448E-7	-7.7430E-7	-7.7080E-7	-7.7680E-7	-7.7600E-7	-7.764006E-7	-7.798679E-7	-7.773893E-7	-7.738923E-7	-7.744529E-7	  -20.0872	   10.9414	    3.8216	  -30.0986	
 -910.0000	-7.8027E-7	-7.7670E-7	-7.8040E-7	-7.8450E-7	-7.7950E-7	-7.832794E-7	-7.850118E-7	-7.788585E-7	-7.836460E-7	-7.856012E-7	  -20.1178	   10.9226	    3.8197	  -30.1170	
 -920.0000	-7.8687E-7	-7.8470E-7	-7.8710E-7	-7.8820E-7	-7.8750E-7	-7.825305E-7	-7.855523E-7	-7.782612E-7	-7.810085E-7	-7.853002E-7	  -20.1203	   10.9335	    3.8046	  -30.1512	
 -930.0000	-7.9138E-7	-7.8830E-7	-7.8690E-7	-7.9460E-7	-7.9570E-7	-7.914168E-7	-7.924096E-7	-7.938651E-7	-7.913249E-7	-7.880675E-7	  -20.1025	   10.9877	    3.8125	  -30.0915	
 -940.0000	-7.9917E-7	-8.0220E-7	-8.0280E-7	-7.9920E-7	-7.9250E-7	-7.930235E-7	-7.916685E-7	-7.926168E-7	-7.929644E-7	-7.948444E-7	  -20.1127	   10.9715	    3.8052	  -30.1229	
 -950.0000	-8.0372E-7	-8.0470E-7	-8.0380E-7	-8.0290E-7	-8.0350E-7	-7.986647E-7	-8.008440E-7	-7.974967E-7	-7.955940E-7	-8.007240E-7	  -20.1127	   10.9760	    3.8055	  -30.1189	
 -960.0000	-8.1163E-7	-8.0910E-7	-8.1250E-7	-8.1090E-7	-8.1400E-7	-8.138766E-7	-8.098441E-7	-8.128072E-7	-8.138168E-7	-8.190381E-7	  -20.1051	   11.0006	    3.7973	  -30.1244	
 -970.0000	-8.1765E-7	-8.1360E-7	-8.1630E-7	-8.2210E-7	-8.1860E-7	-8.215320E-7	-8.196118E-7	-8.240010E-7	-8.248552E-7	-8.176602E-7	  -20.0949	   11.0193	    3.7982	  -30.1088	
 -980.0000	-8.2840E-7	-8.2360E-7	-8.2290E-7	-8.3280E-7	-8.3430E-7	-8.321263E-7	-8.318394E-7	-8.356299E-7	-8.288326E-7	-8.322031E-7	  -20.0745	   10.9768	    3.8169	  -30.0869	
 -990.0000	-8.3145E-7	-8.3000E-7	-8.3790E-7	-8.3090E-7	-8.2700E-7	-8.300815E-7	-8.291151E-7	-8.272527E-7	-8.327612E-7	-8.311971E-7	  -20.0694	   10.9433	    3.8305	  -30.0729	
-1000.0000	-8.3978E-7	-8.3800E-7	-8.3660E-7	-8.4160E-7	-8.4290E-7	-8.378972E-7	-8.384990E-7	-8.398814E-7	-8.356760E-7	-8.375323E-7	  -20.0542	   10.9681	    3.8305	  -30.0557	
