GCD Test
Bias: 5000.000000
IV_38694_040_2-S_HM_XX_DIODEQUARTER_Irradiated_Annealed_60C_80min
Date/Time: 3/20/2022 3:21:01 PM
Sensor Name: 
Type: P
Annealing Status: Irradiated and Annealed at 60C for 80 minutes
Environment: -20C
Tester: Andrew Kent

Time Delay per Ramp Step (s): 1.000

CV Time Delay per Measurement (s) :0.500

AC Voltage (V): 0.500

Current Number of measurements per voltage: 4.000

IV Time Delay per Measurement (s) :0.000


BiasVoltage	Total Current_Avg	Total Current_0	Total Current_1	Total Current_2	Total Current_3	Bias Current_Avg	Bias Current_0	Bias Current_1	Bias Current_2	Bias Current_3	Temperature	Air_Temp	Humidity	Dewpoint	
  -10.0000	-1.5237E-7	-1.5290E-7	-1.5260E-7	-1.5220E-7	-1.5180E-7	-1.527411E-7	-1.528666E-7	-1.527468E-7	-1.529247E-7	-1.524263E-7	  -19.7210	    8.3545	    4.1401	  -31.0787	
  -20.0000	-1.9710E-7	-1.9770E-7	-1.9710E-7	-1.9710E-7	-1.9650E-7	-1.963730E-7	-1.966656E-7	-1.964586E-7	-1.961262E-7	-1.962416E-7	  -19.8659	    8.3482	    4.1841	  -30.9732	
  -30.0000	-2.2897E-7	-2.2970E-7	-2.2890E-7	-2.2870E-7	-2.2860E-7	-2.277688E-7	-2.279504E-7	-2.276464E-7	-2.277125E-7	-2.277658E-7	  -19.9702	    8.3482	    4.1986	  -30.9370	
  -40.0000	-2.5437E-7	-2.5510E-7	-2.5450E-7	-2.5430E-7	-2.5360E-7	-2.531711E-7	-2.534281E-7	-2.533309E-7	-2.530952E-7	-2.528302E-7	  -20.0211	    8.3680	    4.2236	  -30.8611	
  -50.0000	-2.7535E-7	-2.7700E-7	-2.7530E-7	-2.7430E-7	-2.7480E-7	-2.744240E-7	-2.745853E-7	-2.746310E-7	-2.745331E-7	-2.739465E-7	  -20.1152	    8.4296	    4.2413	  -30.7739	
  -60.0000	-2.9260E-7	-2.9330E-7	-2.9210E-7	-2.9250E-7	-2.9250E-7	-2.922605E-7	-2.931091E-7	-2.925626E-7	-2.921068E-7	-2.912634E-7	  -20.1839	    8.4027	    4.2669	  -30.7300	
  -70.0000	-3.0843E-7	-3.0910E-7	-3.0880E-7	-3.0820E-7	-3.0760E-7	-3.076866E-7	-3.080198E-7	-3.077759E-7	-3.078564E-7	-3.070944E-7	  -20.2831	    8.4120	    4.3264	  -30.5788	
  -80.0000	-3.2243E-7	-3.2350E-7	-3.2270E-7	-3.2220E-7	-3.2130E-7	-3.201769E-7	-3.205723E-7	-3.202590E-7	-3.201411E-7	-3.197351E-7	  -20.3416	    8.3991	    4.3710	  -30.4807	
  -90.0000	-3.3482E-7	-3.3520E-7	-3.3490E-7	-3.3450E-7	-3.3470E-7	-3.337138E-7	-3.340357E-7	-3.342767E-7	-3.332352E-7	-3.333076E-7	  -20.3823	    8.4119	    4.4219	  -30.3503	
 -100.0000	-3.4625E-7	-3.4720E-7	-3.4640E-7	-3.4630E-7	-3.4510E-7	-3.442326E-7	-3.449839E-7	-3.442414E-7	-3.436970E-7	-3.440080E-7	  -20.4179	    8.4127	    4.4627	  -30.2534	
 -110.0000	-3.5462E-7	-3.5510E-7	-3.5510E-7	-3.5420E-7	-3.5410E-7	-3.536101E-7	-3.541024E-7	-3.533917E-7	-3.537615E-7	-3.531847E-7	  -20.5018	    8.4738	    4.5161	  -30.0849	
 -120.0000	-3.6380E-7	-3.6420E-7	-3.6410E-7	-3.6360E-7	-3.6330E-7	-3.622894E-7	-3.627925E-7	-3.623189E-7	-3.623911E-7	-3.616552E-7	  -20.5247	    8.4738	    4.5266	  -30.0607	
 -130.0000	-3.7238E-7	-3.7270E-7	-3.7290E-7	-3.7200E-7	-3.7190E-7	-3.714046E-7	-3.719804E-7	-3.710460E-7	-3.709442E-7	-3.716478E-7	  -20.5705	    8.4277	    4.5775	  -29.9759	
 -140.0000	-3.8053E-7	-3.8090E-7	-3.8070E-7	-3.8070E-7	-3.7980E-7	-3.792130E-7	-3.794213E-7	-3.792993E-7	-3.788442E-7	-3.792871E-7	  -20.5756	    8.3941	    4.5993	  -29.9499	
 -150.0000	-3.8682E-7	-3.8870E-7	-3.8730E-7	-3.8610E-7	-3.8520E-7	-3.849112E-7	-3.847334E-7	-3.848635E-7	-3.850193E-7	-3.850287E-7	  -20.5756	    8.4446	    4.6306	  -29.8424	
 -160.0000	-3.9305E-7	-3.9430E-7	-3.9350E-7	-3.9280E-7	-3.9160E-7	-3.921253E-7	-3.918845E-7	-3.921253E-7	-3.923402E-7	-3.921513E-7	  -20.5857	    8.4404	    4.6123	  -29.8872	
 -170.0000	-3.9965E-7	-4.0050E-7	-3.9970E-7	-3.9930E-7	-3.9910E-7	-3.990376E-7	-3.986231E-7	-3.990777E-7	-3.991767E-7	-3.992727E-7	  -20.5807	    8.4485	    4.5908	  -29.9306	
 -180.0000	-4.0533E-7	-4.0580E-7	-4.0570E-7	-4.0520E-7	-4.0460E-7	-4.034815E-7	-4.042158E-7	-4.039254E-7	-4.029432E-7	-4.028417E-7	  -20.5629	    8.4359	    4.5753	  -29.9751	
 -190.0000	-4.1130E-7	-4.1180E-7	-4.1110E-7	-4.1180E-7	-4.1050E-7	-4.103246E-7	-4.104821E-7	-4.107237E-7	-4.100173E-7	-4.100753E-7	  -20.5552	    8.4420	    4.5522	  -30.0240	
 -200.0000	-4.1617E-7	-4.1690E-7	-4.1640E-7	-4.1590E-7	-4.1550E-7	-4.149327E-7	-4.159684E-7	-4.148337E-7	-4.146869E-7	-4.142419E-7	  -20.5222	    8.4301	    4.5411	  -30.0581	
 -210.0000	-4.2097E-7	-4.2140E-7	-4.2100E-7	-4.2110E-7	-4.2040E-7	-4.204134E-7	-4.204567E-7	-4.200916E-7	-4.202793E-7	-4.208258E-7	  -20.4891	    8.4283	    4.5462	  -30.0477	
 -220.0000	-4.2557E-7	-4.2630E-7	-4.2590E-7	-4.2500E-7	-4.2510E-7	-4.244585E-7	-4.247860E-7	-4.240642E-7	-4.240419E-7	-4.249420E-7	  -20.4332	    8.4154	    4.5607	  -30.0233	
 -230.0000	-4.3000E-7	-4.3070E-7	-4.2990E-7	-4.2980E-7	-4.2960E-7	-4.299939E-7	-4.301029E-7	-4.298960E-7	-4.298351E-7	-4.301415E-7	  -20.4001	    8.4925	    4.6164	  -29.8406	
 -240.0000	-4.3567E-7	-4.3600E-7	-4.3550E-7	-4.3570E-7	-4.3550E-7	-4.354631E-7	-4.350714E-7	-4.358023E-7	-4.356988E-7	-4.352800E-7	  -20.3569	    8.4936	    4.6471	  -29.7700	
 -250.0000	-4.4060E-7	-4.4050E-7	-4.4070E-7	-4.4090E-7	-4.4030E-7	-4.398354E-7	-4.403268E-7	-4.397902E-7	-4.394030E-7	-4.398217E-7	  -20.3212	    8.4577	    4.7027	  -29.6701	
 -260.0000	-4.4452E-7	-4.4460E-7	-4.4450E-7	-4.4460E-7	-4.4440E-7	-4.438223E-7	-4.441315E-7	-4.437210E-7	-4.431334E-7	-4.443032E-7	  -20.2399	    8.4128	    4.7385	  -29.6224	
 -270.0000	-4.4855E-7	-4.4910E-7	-4.4880E-7	-4.4810E-7	-4.4820E-7	-4.470256E-7	-4.475696E-7	-4.468280E-7	-4.471823E-7	-4.465226E-7	  -20.2042	    8.4471	    4.8008	  -29.4599	
 -280.0000	-4.5258E-7	-4.5290E-7	-4.5220E-7	-4.5260E-7	-4.5260E-7	-4.517868E-7	-4.521675E-7	-4.518596E-7	-4.520341E-7	-4.510859E-7	  -20.1712	    8.4459	    4.7989	  -29.4649	
 -290.0000	-4.5692E-7	-4.5780E-7	-4.5670E-7	-4.5700E-7	-4.5620E-7	-4.558240E-7	-4.562396E-7	-4.563485E-7	-4.558500E-7	-4.548580E-7	  -20.1178	    8.4235	    4.7815	  -29.5193	
 -300.0000	-4.6077E-7	-4.6000E-7	-4.6060E-7	-4.6130E-7	-4.6120E-7	-4.602166E-7	-4.614346E-7	-4.609165E-7	-4.593610E-7	-4.591544E-7	  -20.0440	    8.4364	    4.7736	  -29.5276	
 -310.0000	-4.6512E-7	-4.6560E-7	-4.6590E-7	-4.6490E-7	-4.6410E-7	-4.637564E-7	-4.639977E-7	-4.642995E-7	-4.635189E-7	-4.632094E-7	  -20.0211	    8.4582	    4.7628	  -29.5358	
 -320.0000	-4.6878E-7	-4.6880E-7	-4.6870E-7	-4.6840E-7	-4.6920E-7	-4.691079E-7	-4.696008E-7	-4.699172E-7	-4.687444E-7	-4.681693E-7	  -19.9779	    8.4867	    4.7638	  -29.5132	
 -330.0000	-4.7340E-7	-4.7310E-7	-4.7320E-7	-4.7360E-7	-4.7370E-7	-4.742241E-7	-4.738016E-7	-4.737119E-7	-4.750433E-7	-4.743397E-7	  -19.9372	    8.4879	    4.7758	  -29.4858	
 -340.0000	-4.7683E-7	-4.7700E-7	-4.7740E-7	-4.7620E-7	-4.7670E-7	-4.772751E-7	-4.771187E-7	-4.773506E-7	-4.774582E-7	-4.771729E-7	  -19.8710	    8.4744	    4.7729	  -29.5017	
 -350.0000	-4.8083E-7	-4.8110E-7	-4.8100E-7	-4.8080E-7	-4.8040E-7	-4.806908E-7	-4.804550E-7	-4.804338E-7	-4.808766E-7	-4.809979E-7	  -19.8532	    8.5048	    4.7533	  -29.5235	
 -360.0000	-4.8500E-7	-4.8490E-7	-4.8500E-7	-4.8500E-7	-4.8510E-7	-4.849435E-7	-4.849655E-7	-4.847002E-7	-4.852387E-7	-4.848696E-7	  -19.8354	    8.4825	    4.7356	  -29.5788	
 -370.0000	-4.8920E-7	-4.8910E-7	-4.8930E-7	-4.8930E-7	-4.8910E-7	-4.886486E-7	-4.889141E-7	-4.885982E-7	-4.882188E-7	-4.888631E-7	  -19.7998	    8.4731	    4.6923	  -29.6826	
 -380.0000	-4.9177E-7	-4.9220E-7	-4.9120E-7	-4.9160E-7	-4.9210E-7	-4.913891E-7	-4.919422E-7	-4.910037E-7	-4.913117E-7	-4.912990E-7	  -19.7896	    8.4745	    4.6781	  -29.7136	
 -390.0000	-4.9567E-7	-4.9540E-7	-4.9520E-7	-4.9590E-7	-4.9620E-7	-4.962019E-7	-4.968655E-7	-4.957274E-7	-4.959047E-7	-4.963099E-7	  -19.7871	    8.4713	    4.6679	  -29.7387	
 -400.0000	-4.9970E-7	-4.9970E-7	-4.9930E-7	-4.9970E-7	-5.0010E-7	-5.015520E-7	-5.009855E-7	-5.019195E-7	-5.013133E-7	-5.019896E-7	  -19.7591	    8.4476	    4.6575	  -29.7793	
 -410.0000	-5.0408E-7	-5.0400E-7	-5.0430E-7	-5.0440E-7	-5.0360E-7	-5.033393E-7	-5.031458E-7	-5.035261E-7	-5.035855E-7	-5.030996E-7	  -19.7642	    8.4208	    4.6246	  -29.8730	
 -420.0000	-5.0647E-7	-5.0670E-7	-5.0630E-7	-5.0640E-7	-5.0650E-7	-5.066428E-7	-5.075294E-7	-5.067396E-7	-5.058659E-7	-5.064365E-7	  -19.7871	    8.4608	    4.6047	  -29.8900	
 -430.0000	-5.1017E-7	-5.1140E-7	-5.0960E-7	-5.1000E-7	-5.0970E-7	-5.102974E-7	-5.103767E-7	-5.099807E-7	-5.103332E-7	-5.104990E-7	  -19.8049	    8.3941	    4.5740	  -30.0079	
 -440.0000	-5.1340E-7	-5.1420E-7	-5.1320E-7	-5.1340E-7	-5.1280E-7	-5.129726E-7	-5.129025E-7	-5.130966E-7	-5.130771E-7	-5.128142E-7	  -19.8176	    8.3239	    4.5689	  -30.0696	
 -450.0000	-5.1712E-7	-5.1750E-7	-5.1660E-7	-5.1740E-7	-5.1700E-7	-5.168572E-7	-5.171050E-7	-5.166054E-7	-5.167088E-7	-5.170097E-7	  -19.8176	    8.3598	    4.5772	  -30.0251	
 -460.0000	-5.1933E-7	-5.1910E-7	-5.1980E-7	-5.1980E-7	-5.1860E-7	-5.193690E-7	-5.199111E-7	-5.190516E-7	-5.190170E-7	-5.194964E-7	  -19.8456	    8.4277	    4.5708	  -29.9912	
 -470.0000	-5.2265E-7	-5.2210E-7	-5.2270E-7	-5.2270E-7	-5.2310E-7	-5.226831E-7	-5.237729E-7	-5.219291E-7	-5.227613E-7	-5.222691E-7	  -19.8710	    8.5108	    4.5414	  -29.9999	
 -480.0000	-5.2495E-7	-5.2530E-7	-5.2530E-7	-5.2530E-7	-5.2390E-7	-5.244209E-7	-5.237192E-7	-5.245629E-7	-5.245124E-7	-5.248891E-7	  -19.8888	    8.5108	    4.5323	  -30.0211	
 -490.0000	-5.2742E-7	-5.2790E-7	-5.2720E-7	-5.2680E-7	-5.2780E-7	-5.275222E-7	-5.273091E-7	-5.278489E-7	-5.272481E-7	-5.276827E-7	  -19.9143	    8.4850	    4.5155	  -30.0784	
 -500.0000	-5.3070E-7	-5.3070E-7	-5.3070E-7	-5.3040E-7	-5.3100E-7	-5.315137E-7	-5.320499E-7	-5.314649E-7	-5.313428E-7	-5.311973E-7	  -19.9448	    8.4954	    4.5218	  -30.0563	
 -510.0000	-5.3350E-7	-5.3390E-7	-5.3340E-7	-5.3370E-7	-5.3300E-7	-5.337267E-7	-5.327153E-7	-5.336826E-7	-5.342982E-7	-5.342108E-7	  -19.9779	    8.5140	    4.5300	  -30.0239	
 -520.0000	-5.3587E-7	-5.3540E-7	-5.3580E-7	-5.3640E-7	-5.3590E-7	-5.353251E-7	-5.356152E-7	-5.353759E-7	-5.348339E-7	-5.354752E-7	  -19.9982	    8.5140	    4.5285	  -30.0276	
 -530.0000	-5.3845E-7	-5.3930E-7	-5.3830E-7	-5.3850E-7	-5.3770E-7	-5.384461E-7	-5.377869E-7	-5.388012E-7	-5.386242E-7	-5.385721E-7	  -20.0186	    8.4793	    4.5373	  -30.0318	
 -540.0000	-5.4015E-7	-5.4100E-7	-5.4020E-7	-5.4010E-7	-5.3930E-7	-5.381481E-7	-5.388006E-7	-5.382341E-7	-5.380322E-7	-5.375256E-7	  -20.0313	    8.5343	    4.5541	  -29.9538	
 -550.0000	-5.4218E-7	-5.4280E-7	-5.4220E-7	-5.4190E-7	-5.4180E-7	-5.424292E-7	-5.418835E-7	-5.429637E-7	-5.424416E-7	-5.424282E-7	  -20.0694	    8.5313	    4.5462	  -29.9742	
 -560.0000	-5.4575E-7	-5.4510E-7	-5.4630E-7	-5.4520E-7	-5.4640E-7	-5.464247E-7	-5.469246E-7	-5.465676E-7	-5.463680E-7	-5.458387E-7	  -20.0822	    8.5313	    4.5424	  -29.9830	
 -570.0000	-5.4610E-7	-5.4580E-7	-5.4600E-7	-5.4620E-7	-5.4640E-7	-5.463218E-7	-5.465780E-7	-5.467900E-7	-5.460749E-7	-5.458442E-7	  -20.0771	    8.5930	    4.5354	  -29.9551	
 -580.0000	-5.4950E-7	-5.4890E-7	-5.4960E-7	-5.4930E-7	-5.5020E-7	-5.500806E-7	-5.501968E-7	-5.511589E-7	-5.496217E-7	-5.493450E-7	  -20.0949	    8.6241	    4.5338	  -29.9367	
 -590.0000	-5.4985E-7	-5.5050E-7	-5.4960E-7	-5.4960E-7	-5.4970E-7	-5.488949E-7	-5.489352E-7	-5.482681E-7	-5.493099E-7	-5.490665E-7	  -20.1076	    8.5575	    4.5326	  -29.9871	
 -600.0000	-5.5272E-7	-5.5230E-7	-5.5290E-7	-5.5330E-7	-5.5240E-7	-5.535178E-7	-5.534333E-7	-5.537661E-7	-5.541138E-7	-5.527580E-7	  -20.1101	    8.5856	    4.5183	  -30.0001	
 -610.0000	-5.5452E-7	-5.5530E-7	-5.5520E-7	-5.5380E-7	-5.5380E-7	-5.539274E-7	-5.533765E-7	-5.540666E-7	-5.541506E-7	-5.541161E-7	  -20.1101	    8.5434	    4.5272	  -30.0096	
 -620.0000	-5.5615E-7	-5.5670E-7	-5.5640E-7	-5.5550E-7	-5.5600E-7	-5.552082E-7	-5.554444E-7	-5.552655E-7	-5.555031E-7	-5.546196E-7	  -20.1229	    8.6201	    4.6082	  -29.7683	
 -630.0000	-5.5770E-7	-5.5780E-7	-5.5720E-7	-5.5780E-7	-5.5800E-7	-5.570762E-7	-5.571055E-7	-5.565665E-7	-5.570820E-7	-5.575508E-7	  -20.1203	    8.6201	    4.6354	  -29.7062	
 -640.0000	-5.5987E-7	-5.6020E-7	-5.6000E-7	-5.5970E-7	-5.5960E-7	-5.606096E-7	-5.596942E-7	-5.612542E-7	-5.609174E-7	-5.605726E-7	  -20.1152	    8.6535	    4.6853	  -29.5692	
 -650.0000	-5.6113E-7	-5.6160E-7	-5.6100E-7	-5.6100E-7	-5.6090E-7	-5.603622E-7	-5.603171E-7	-5.603908E-7	-5.605282E-7	-5.602128E-7	  -20.1025	    8.6015	    4.6989	  -29.5758	
 -660.0000	-5.6483E-7	-5.6470E-7	-5.6450E-7	-5.6510E-7	-5.6500E-7	-5.635561E-7	-5.642563E-7	-5.641108E-7	-5.632284E-7	-5.626288E-7	  -20.1051	    8.7553	    4.7005	  -29.4622	
 -670.0000	-5.6598E-7	-5.6520E-7	-5.6670E-7	-5.6670E-7	-5.6530E-7	-5.655778E-7	-5.651069E-7	-5.662840E-7	-5.657571E-7	-5.651634E-7	  -20.1051	    8.7359	    4.7113	  -29.4520	
 -680.0000	-5.6750E-7	-5.6790E-7	-5.6730E-7	-5.6770E-7	-5.6710E-7	-5.663170E-7	-5.664274E-7	-5.666323E-7	-5.662843E-7	-5.659240E-7	  -20.0923	    8.6735	    4.6856	  -29.5542	
 -690.0000	-5.7020E-7	-5.7040E-7	-5.7030E-7	-5.7060E-7	-5.6950E-7	-5.676805E-7	-5.680715E-7	-5.672159E-7	-5.669750E-7	-5.684594E-7	  -20.0898	    8.6001	    4.6689	  -29.6445	
 -700.0000	-5.7047E-7	-5.7010E-7	-5.7070E-7	-5.7100E-7	-5.7010E-7	-5.709580E-7	-5.701457E-7	-5.710882E-7	-5.716536E-7	-5.709445E-7	  -20.0822	    8.6017	    4.6673	  -29.6469	
 -710.0000	-5.7355E-7	-5.7340E-7	-5.7420E-7	-5.7370E-7	-5.7290E-7	-5.722178E-7	-5.724630E-7	-5.725231E-7	-5.724119E-7	-5.714733E-7	  -20.0669	    8.6563	    4.6676	  -29.6072	
 -720.0000	-5.7513E-7	-5.7460E-7	-5.7510E-7	-5.7540E-7	-5.7540E-7	-5.749601E-7	-5.753142E-7	-5.753421E-7	-5.745068E-7	-5.746771E-7	  -20.0593	    8.6995	    4.6695	  -29.5720	
 -730.0000	-5.7578E-7	-5.7690E-7	-5.7630E-7	-5.7510E-7	-5.7480E-7	-5.762185E-7	-5.755930E-7	-5.762542E-7	-5.761036E-7	-5.769234E-7	  -20.0415	    8.6369	    4.6894	  -29.5718	
 -740.0000	-5.7955E-7	-5.7980E-7	-5.7980E-7	-5.7940E-7	-5.7920E-7	-5.781923E-7	-5.782662E-7	-5.787029E-7	-5.779224E-7	-5.778778E-7	  -20.0287	    8.6673	    4.7030	  -29.5195	
 -750.0000	-5.8145E-7	-5.8070E-7	-5.8190E-7	-5.8130E-7	-5.8190E-7	-5.817336E-7	-5.817005E-7	-5.813985E-7	-5.820269E-7	-5.818085E-7	  -20.0211	    8.7068	    4.7106	  -29.4742	
 -760.0000	-5.8387E-7	-5.8410E-7	-5.8430E-7	-5.8400E-7	-5.8310E-7	-5.838433E-7	-5.829120E-7	-5.838725E-7	-5.839186E-7	-5.846700E-7	  -20.0135	    8.6979	    4.7087	  -29.4849	
 -770.0000	-5.8607E-7	-5.8570E-7	-5.8600E-7	-5.8650E-7	-5.8610E-7	-5.873077E-7	-5.872179E-7	-5.869863E-7	-5.874397E-7	-5.875868E-7	  -19.9957	    8.7911	    4.7441	  -29.3389	
 -780.0000	-5.8880E-7	-5.8800E-7	-5.8840E-7	-5.8930E-7	-5.8950E-7	-5.883997E-7	-5.887806E-7	-5.880212E-7	-5.886576E-7	-5.881395E-7	  -19.9906	    8.7338	    4.7906	  -29.2767	
 -790.0000	-5.8967E-7	-5.9030E-7	-5.8910E-7	-5.8990E-7	-5.8940E-7	-5.888695E-7	-5.883875E-7	-5.885173E-7	-5.886338E-7	-5.899394E-7	  -19.9830	    8.7452	    4.7906	  -29.2686	
 -800.0000	-5.9092E-7	-5.9090E-7	-5.9050E-7	-5.9060E-7	-5.9170E-7	-5.913829E-7	-5.913101E-7	-5.914670E-7	-5.916550E-7	-5.910997E-7	  -19.9626	    8.7082	    4.8194	  -29.2316	
 -810.0000	-5.9410E-7	-5.9390E-7	-5.9400E-7	-5.9480E-7	-5.9370E-7	-5.938651E-7	-5.933126E-7	-5.939844E-7	-5.943751E-7	-5.937884E-7	  -19.9601	    8.7139	    4.8036	  -29.2624	
 -820.0000	-5.9713E-7	-5.9760E-7	-5.9770E-7	-5.9680E-7	-5.9640E-7	-5.973473E-7	-5.957804E-7	-5.980478E-7	-5.977620E-7	-5.977989E-7	  -19.9550	    8.6339	    4.8324	  -29.2564	
 -830.0000	-5.9882E-7	-5.9930E-7	-5.9820E-7	-5.9930E-7	-5.9850E-7	-5.974799E-7	-5.977996E-7	-5.974790E-7	-5.977346E-7	-5.969064E-7	  -19.9575	    8.6432	    4.8403	  -29.2325	
 -840.0000	-6.0095E-7	-6.0100E-7	-6.0080E-7	-6.0100E-7	-6.0100E-7	-5.998760E-7	-6.000806E-7	-5.994331E-7	-6.003502E-7	-5.996402E-7	  -19.9499	    8.6783	    4.8555	  -29.1741	
 -850.0000	-6.0115E-7	-6.0100E-7	-6.0210E-7	-6.0070E-7	-6.0080E-7	-6.009859E-7	-6.018792E-7	-6.014017E-7	-6.003143E-7	-6.003485E-7	  -19.9372	    8.7651	    4.9029	  -29.0086	
 -860.0000	-6.0278E-7	-6.0460E-7	-6.0280E-7	-6.0150E-7	-6.0220E-7	-6.027439E-7	-6.026567E-7	-6.024852E-7	-6.028323E-7	-6.030015E-7	  -19.9372	    8.7840	    4.9478	  -28.8982	
 -870.0000	-6.0553E-7	-6.0590E-7	-6.0630E-7	-6.0540E-7	-6.0450E-7	-6.050629E-7	-6.042810E-7	-6.053025E-7	-6.055283E-7	-6.051397E-7	  -19.9397	    8.8297	    4.9472	  -28.8667	
 -880.0000	-6.0660E-7	-6.0680E-7	-6.0670E-7	-6.0640E-7	-6.0650E-7	-6.059625E-7	-6.069906E-7	-6.060242E-7	-6.054386E-7	-6.053968E-7	  -19.9448	    8.8645	    4.9681	  -28.7969	
 -890.0000	-6.0920E-7	-6.0880E-7	-6.0870E-7	-6.0930E-7	-6.1000E-7	-6.090246E-7	-6.095030E-7	-6.088809E-7	-6.090302E-7	-6.086844E-7	  -19.9524	    8.8995	    4.9972	  -28.7096	
 -900.0000	-6.1110E-7	-6.1060E-7	-6.1030E-7	-6.1080E-7	-6.1270E-7	-6.115753E-7	-6.119120E-7	-6.119804E-7	-6.111846E-7	-6.112242E-7	  -19.9524	    8.9439	    5.0338	  -28.5997	
 -910.0000	-6.1295E-7	-6.1260E-7	-6.1270E-7	-6.1330E-7	-6.1320E-7	-6.125545E-7	-6.120804E-7	-6.123080E-7	-6.132823E-7	-6.125471E-7	  -19.9601	    8.9162	    5.0462	  -28.5936	
 -920.0000	-6.1350E-7	-6.1310E-7	-6.1250E-7	-6.1360E-7	-6.1480E-7	-6.145776E-7	-6.147931E-7	-6.148193E-7	-6.147914E-7	-6.139066E-7	  -19.9677	    8.9288	    5.0582	  -28.5592	
 -930.0000	-6.1585E-7	-6.1640E-7	-6.1580E-7	-6.1590E-7	-6.1530E-7	-6.148379E-7	-6.149019E-7	-6.148158E-7	-6.150133E-7	-6.146204E-7	  -19.9804	    8.9830	    5.0528	  -28.5315	
 -940.0000	-6.1772E-7	-6.1710E-7	-6.1800E-7	-6.1770E-7	-6.1810E-7	-6.168391E-7	-6.166686E-7	-6.167924E-7	-6.168486E-7	-6.170469E-7	  -19.9830	    8.9092	    5.0433	  -28.6046	
 -950.0000	-6.1892E-7	-6.1800E-7	-6.1880E-7	-6.1870E-7	-6.2020E-7	-6.203631E-7	-6.219374E-7	-6.204904E-7	-6.195536E-7	-6.194712E-7	  -19.9906	    8.8975	    5.0449	  -28.6097	
 -960.0000	-6.2182E-7	-6.2240E-7	-6.2220E-7	-6.2130E-7	-6.2140E-7	-6.216217E-7	-6.210989E-7	-6.213677E-7	-6.212454E-7	-6.227748E-7	  -19.9982	    8.9594	    5.0389	  -28.5779	
 -970.0000	-6.2337E-7	-6.2420E-7	-6.2360E-7	-6.2280E-7	-6.2290E-7	-6.235226E-7	-6.226887E-7	-6.235645E-7	-6.235639E-7	-6.242733E-7	  -20.0008	    8.9714	    5.0474	  -28.5511	
 -980.0000	-6.2567E-7	-6.2550E-7	-6.2510E-7	-6.2640E-7	-6.2570E-7	-6.234779E-7	-6.238840E-7	-6.233715E-7	-6.234347E-7	-6.232214E-7	  -20.0033	    8.9268	    5.0497	  -28.5786	
 -990.0000	-6.2775E-7	-6.2730E-7	-6.2780E-7	-6.2820E-7	-6.2770E-7	-6.278207E-7	-6.270572E-7	-6.270077E-7	-6.284315E-7	-6.287866E-7	  -20.0059	    8.9748	    5.0623	  -28.5174	
-1000.0000	-6.3062E-7	-6.3120E-7	-6.3100E-7	-6.3020E-7	-6.3010E-7	-6.298628E-7	-6.294546E-7	-6.298563E-7	-6.299277E-7	-6.302125E-7	  -20.0135	    8.9297	    5.0889	  -28.4940	
