GCD Test
Bias: 5000.000000
CV_D0_CO138_LargeDiode_GRConnected_Irradiated_40min_at_60C
Date/Time: 8/2/2021 2:45:21 PM
Sensor Name: CO138
Type: N
Annealing Status: Irradiated and Annealed at 60C for 30 Minutes
Environment: RT
Tester: Andrew Kent

Time Delay per Ramp Step (s): 0.500

CV Time Delay per Measurement (s) :0.500

AC Voltage (V): 0.500

Current Number of measurements per voltage: 4.000

IV Time Delay per Measurement (s) :0.000


BiasVoltage	LCR_Cp_freq1000.0	LCR_Cp_freq10000.0	LCR_Rp_freq1000.0	LCR_Rp_freq10000.0	Temperature	Air_Temp	Humidity	Dewpoint	
    1.0000	3.967E-12	3.902E-12	1.761E+9	2.875E+8	  -19.9931	    7.6454	    8.1429	  -24.3284	
    2.0000	4.010E-12	3.909E-12	1.313E+9	2.734E+8	  -19.9982	    7.5804	    8.1584	  -24.3566	
    3.0000	3.981E-12	3.930E-12	1.225E+8	1.866E+7	  -20.0008	    7.6607	    8.1471	  -24.3112	
    4.0000	4.418E-11	1.954E-11	1.983E+6	1.485E+6	  -20.0008	    7.6437	    8.1357	  -24.3396	
    5.0000	4.524E-11	1.958E-11	2.053E+6	1.508E+6	  -20.0008	    7.6142	    8.1395	  -24.3568	
    6.0000	4.594E-11	1.943E-11	2.111E+6	1.520E+6	  -20.0059	    7.6484	    8.1325	  -24.3403	
    7.0000	4.623E-11	1.950E-11	2.183E+6	1.542E+6	  -20.0135	    7.6049	    8.1151	  -24.3971	
    8.0000	4.665E-11	1.966E-11	2.242E+6	1.572E+6	  -20.0059	    7.6542	    8.1066	  -24.3714	
    9.0000	4.723E-11	1.977E-11	2.292E+6	1.599E+6	  -19.9906	    7.6608	    8.0879	  -24.3920	
   10.0000	4.722E-11	1.990E-11	2.365E+6	1.615E+6	  -19.9855	    7.6607	    8.0718	  -24.4142	
   20.0000	4.695E-11	1.996E-11	3.010E+6	1.769E+6	  -19.9779	    7.6704	    8.0639	  -24.4177	
   30.0000	4.603E-11	2.012E-11	3.494E+6	1.900E+6	  -19.9830	    7.6388	    8.0484	  -24.4629	
   40.0000	4.504E-11	2.017E-11	3.911E+6	1.997E+6	  -19.9830	    7.6381	    8.0310	  -24.4874	
   50.0000	4.390E-11	2.020E-11	4.294E+6	2.085E+6	  -20.0008	    7.6433	    8.0234	  -24.4940	
   60.0000	4.297E-11	2.018E-11	4.637E+6	2.168E+6	  -20.0033	    7.6433	    8.0171	  -24.5027	
   70.0000	4.182E-11	2.015E-11	4.981E+6	2.259E+6	  -20.0186	    7.5682	    8.0003	  -24.5827	
   80.0000	4.088E-11	2.019E-11	5.299E+6	2.350E+6	  -20.0237	    7.5682	    7.9949	  -24.5901	
   90.0000	4.009E-11	2.020E-11	5.597E+6	2.437E+6	  -20.0237	    7.6115	    7.9671	  -24.5960	
  100.0000	3.944E-11	2.022E-11	5.876E+6	2.532E+6	  -20.0287	    7.6624	    7.9589	  -24.5690	
  120.0000	3.804E-11	2.026E-11	6.438E+6	2.742E+6	  -20.0186	    7.6624	    7.9526	  -24.5778	
  140.0000	3.697E-11	2.040E-11	6.996E+6	3.078E+6	  -20.0186	    7.6484	    7.9469	  -24.5963	
  160.0000	3.582E-11	2.035E-11	7.515E+6	3.280E+6	  -19.9931	    7.6484	    7.9390	  -24.6073	
  180.0000	3.480E-11	2.029E-11	8.035E+6	3.498E+6	  -19.9830	    7.6773	    7.9175	  -24.6154	
  200.0000	3.383E-11	2.024E-11	8.561E+6	3.732E+6	  -19.9855	    7.6379	    7.8997	  -24.6699	
  220.0000	3.295E-11	2.018E-11	9.088E+6	3.996E+6	  -19.9880	    7.6379	    7.8978	  -24.6726	
  240.0000	3.197E-11	2.012E-11	9.709E+6	4.300E+6	  -19.9830	    7.5906	    7.8877	  -24.7225	
  260.0000	3.115E-11	2.007E-11	1.032E+7	4.623E+6	  -19.9830	    7.5596	    7.8694	  -24.7716	
  280.0000	3.022E-11	2.003E-11	1.103E+7	4.995E+6	  -19.9982	    7.5384	    7.8555	  -24.8072	
  300.0000	2.944E-11	1.998E-11	1.177E+7	5.410E+6	  -19.9957	    7.5797	    7.8428	  -24.7938	
  320.0000	2.857E-11	1.994E-11	1.267E+7	5.891E+6	  -20.0109	    7.5899	    7.8454	  -24.7826	
  340.0000	2.782E-11	1.990E-11	1.360E+7	6.430E+6	  -20.0084	    7.5601	    7.8324	  -24.8233	
  360.0000	2.704E-11	1.987E-11	1.473E+7	7.066E+6	  -20.0160	    7.5419	    7.8327	  -24.8366	
  380.0000	2.629E-11	1.984E-11	1.601E+7	7.751E+6	  -20.0237	    7.5419	    7.8191	  -24.8558	
  400.0000	2.561E-11	1.981E-11	1.740E+7	8.660E+6	  -20.0084	    7.4818	    7.8150	  -24.9070	
  420.0000	2.491E-11	1.980E-11	1.905E+7	9.557E+6	  -20.0109	    7.5134	    7.8128	  -24.8863	
  440.0000	2.425E-11	1.978E-11	2.101E+7	1.065E+7	  -19.9982	    7.5134	    7.8030	  -24.9001	
  460.0000	2.364E-11	1.977E-11	2.325E+7	1.187E+7	  -20.0008	    7.5427	    7.7963	  -24.8874	
  480.0000	2.309E-11	1.976E-11	2.589E+7	1.319E+7	  -19.9830	    7.6006	    7.7859	  -24.8585	
  500.0000	2.258E-11	1.975E-11	2.902E+7	1.466E+7	  -19.9830	    7.5855	    7.7786	  -24.8802	
  520.0000	2.217E-11	1.974E-11	3.242E+7	1.622E+7	  -19.9804	    7.5895	    7.7593	  -24.9046	
  540.0000	2.181E-11	1.973E-11	3.641E+7	1.789E+7	  -19.9804	    7.5991	    7.7505	  -24.9100	
  560.0000	2.150E-11	1.973E-11	4.073E+7	1.965E+7	  -19.9931	    7.5596	    7.7435	  -24.9497	
  580.0000	2.126E-11	1.973E-11	4.549E+7	2.131E+7	  -19.9957	    7.5149	    7.7233	  -25.0122	
  600.0000	2.107E-11	1.972E-11	4.983E+7	2.297E+7	  -19.9880	    7.5253	    7.7223	  -25.0058	
  620.0000	2.091E-11	1.973E-11	5.416E+7	2.434E+7	  -19.9957	    7.5113	    7.7068	  -25.0384	
  640.0000	2.078E-11	1.974E-11	5.786E+7	2.547E+7	  -20.0033	    7.5556	    7.7100	  -25.0005	
  660.0000	2.071E-11	1.976E-11	5.988E+7	2.636E+7	  -20.0109	    7.5327	    7.6815	  -25.0585	
  680.0000	2.068E-11	1.977E-11	6.055E+7	2.688E+7	  -20.0186	    7.5193	    7.6755	  -25.0772	
  700.0000	2.070E-11	1.980E-11	5.946E+7	2.673E+7	  -20.0135	    7.5515	    7.6616	  -25.0730	
  720.0000	2.079E-11	1.982E-11	5.739E+7	2.587E+7	  -20.0160	    7.5049	    7.6392	  -25.1404	
  740.0000	2.095E-11	1.985E-11	5.554E+7	2.426E+7	  -20.0186	    7.5759	    7.6316	  -25.0979	
  760.0000	2.114E-11	1.990E-11	5.370E+7	2.219E+7	  -20.0084	    7.5342	    7.6091	  -25.1618	
  780.0000	2.134E-11	1.997E-11	5.225E+7	1.990E+7	  -20.0033	    7.5773	    7.5873	  -25.1610	
  800.0000	2.145E-11	2.005E-11	5.027E+7	1.785E+7	  -19.9982	    7.5681	    7.5860	  -25.1697	
  820.0000	2.161E-11	2.017E-11	4.903E+7	1.614E+7	  -19.9906	    7.4733	    7.5750	  -25.2571	
  840.0000	2.180E-11	2.031E-11	4.759E+7	1.480E+7	  -19.9880	    7.4941	    7.5750	  -25.2414	
  860.0000	2.196E-11	2.045E-11	4.596E+7	1.383E+7	  -19.9830	    7.5105	    7.5493	  -25.2663	
  880.0000	2.211E-11	2.061E-11	4.431E+7	1.316E+7	  -19.9906	    7.4905	    7.5402	  -25.2947	
  900.0000	2.227E-11	2.075E-11	4.259E+7	1.267E+7	  -19.9906	    7.4904	    7.5212	  -25.3225	
  920.0000	2.243E-11	2.089E-11	4.083E+7	1.226E+7	  -19.9931	    7.4700	    7.5183	  -25.3421	
  940.0000	2.262E-11	2.103E-11	3.919E+7	1.193E+7	  -20.0008	    7.4900	    7.5051	  -25.3464	
  960.0000	2.280E-11	2.115E-11	3.747E+7	1.160E+7	  -20.0033	    7.4742	    7.4915	  -25.3782	
  980.0000	2.302E-11	2.127E-11	3.571E+7	1.129E+7	  -20.0059	    7.5284	    7.4867	  -25.3445	
 1000.0000	2.320E-11	2.139E-11	3.408E+7	1.094E+7	  -20.0033	    7.5623	    7.4377	  -25.3912	
 1020.0000	2.344E-11	2.149E-11	3.280E+7	1.058E+7	  -20.0033	    7.5123	    7.4421	  -25.4222	
 1040.0000	2.367E-11	2.160E-11	3.128E+7	1.021E+7	  -20.0008	    7.5195	    7.4219	  -25.4467	
 1060.0000	2.390E-11	2.172E-11	3.016E+7	9.763E+6	  -20.0008	    7.5054	    7.4146	  -25.4680	
 1080.0000	2.419E-11	2.182E-11	2.876E+7	9.300E+6	  -20.0059	    7.4897	    7.3937	  -25.5108	
 1100.0000	2.447E-11	2.197E-11	2.757E+7	8.861E+6	  -20.0059	    7.4622	    7.3846	  -25.5450	
