GCD Test
Bias: 5000.000000
IV_D0_CO139_LargeDiode_GRConnected_Irradiated
Date/Time: 7/28/2021 3:28:33 PM
Sensor Name: CO139
Type: N
Annealing Status: Irradiated, Not Annealed
Environment: -20C
Tester: Andrew Kent

Time Delay per Ramp Step (s): 0.500

CV Time Delay per Measurement (s) :0.500

AC Voltage (V): 0.500

Current Number of measurements per voltage: 4.000

IV Time Delay per Measurement (s) :0.000


BiasVoltage	Total Current_Avg	Total Current_0	Total Current_1	Total Current_2	Total Current_3	Bias Current_Avg	Bias Current_0	Bias Current_1	Bias Current_2	Bias Current_3	Temperature	Air_Temp	Humidity	Dewpoint	
    1.0000	 2.7185E-9	 2.7200E-9	 2.5970E-9	 2.8050E-9	 2.7520E-9	1.642746E-9	1.618251E-9	1.688128E-9	1.644033E-9	1.620570E-9	  -19.9906	    6.8108	   10.1499	  -22.5029	
    2.0000	 4.5637E-7	 4.5660E-7	 4.5570E-7	 4.5720E-7	 4.5600E-7	4.825159E-7	4.830538E-7	4.826435E-7	4.808817E-7	4.834845E-7	  -20.0008	    6.8114	   10.1452	  -22.5077	
    3.0000	 5.9410E-7	 5.9510E-7	 5.9490E-7	 5.9380E-7	 5.9260E-7	5.885897E-7	5.883015E-7	5.876598E-7	5.874840E-7	5.909137E-7	  -20.0237	    6.8628	   10.1730	  -22.4369	
    4.0000	 6.8637E-7	 6.9440E-7	 6.9110E-7	 6.8190E-7	 6.7810E-7	6.773992E-7	6.724284E-7	6.795196E-7	6.792245E-7	6.784244E-7	  -20.0745	    7.0013	   10.3039	  -22.1848	
    5.0000	 7.8820E-7	 7.8900E-7	 7.8760E-7	 7.8920E-7	 7.8700E-7	7.778180E-7	7.791981E-7	7.780540E-7	7.780501E-7	7.759698E-7	  -20.0949	    7.0013	   10.3988	  -22.0811	
    6.0000	 8.6493E-7	 8.6400E-7	 8.6380E-7	 8.6630E-7	 8.6560E-7	8.605367E-7	8.576963E-7	8.631757E-7	8.592413E-7	8.620335E-7	  -20.1203	    6.9653	   10.5016	  -21.9976	
    7.0000	 9.4065E-7	 9.3870E-7	 9.4090E-7	 9.4190E-7	 9.4110E-7	9.338792E-7	9.385965E-7	9.336848E-7	9.314978E-7	9.317375E-7	  -20.1279	    6.9177	   10.5886	  -21.9411	
    8.0000	 1.0110E-6	 1.0110E-6	 1.0130E-6	 1.0100E-6	 1.0100E-6	9.996250E-7	9.995820E-7	1.003126E-6	9.967707E-7	9.990212E-7	  -20.1432	    6.9858	   10.6847	  -21.7854	
    9.0000	 1.0717E-6	 1.0700E-6	 1.0710E-6	 1.0750E-6	 1.0710E-6	1.066868E-6	1.059485E-6	1.067675E-6	1.069540E-6	1.070771E-6	  -20.1941	    6.9818	   10.7669	  -21.7014	
   10.0000	 1.1417E-6	 1.1410E-6	 1.1430E-6	 1.1420E-6	 1.1410E-6	1.131639E-6	1.132409E-6	1.129177E-6	1.128945E-6	1.136025E-6	  -20.1966	    7.0371	   10.8751	  -21.5446	
   20.0000	 1.6993E-6	 1.7000E-6	 1.7000E-6	 1.7000E-6	 1.6970E-6	1.672279E-6	1.668058E-6	1.669855E-6	1.670396E-6	1.680808E-6	  -20.1941	    7.0246	   10.9456	  -21.4807	
   30.0000	 2.1647E-6	 2.1630E-6	 2.1630E-6	 2.1630E-6	 2.1700E-6	2.139444E-6	2.133253E-6	2.147438E-6	2.145058E-6	2.132027E-6	  -20.1534	    6.9686	   11.0557	  -21.4105	
   40.0000	 2.5835E-6	 2.5810E-6	 2.5840E-6	 2.5900E-6	 2.5790E-6	2.546552E-6	2.539491E-6	2.550261E-6	2.550377E-6	2.546078E-6	  -20.1101	    7.0548	   11.0993	  -21.2981	
   50.0000	 2.9643E-6	 2.9630E-6	 2.9580E-6	 2.9630E-6	 2.9730E-6	2.932532E-6	2.925426E-6	2.932009E-6	2.940578E-6	2.932114E-6	  -20.0465	    7.1009	   11.1638	  -21.1959	
   60.0000	 3.3477E-6	 3.3390E-6	 3.3460E-6	 3.3490E-6	 3.3570E-6	3.311570E-6	3.301686E-6	3.312606E-6	3.314713E-6	3.317276E-6	  -19.9957	    7.0925	   11.1999	  -21.1656	
   70.0000	 3.6813E-6	 3.6680E-6	 3.6640E-6	 3.6900E-6	 3.7030E-6	3.651568E-6	3.647867E-6	3.639209E-6	3.662062E-6	3.657133E-6	  -19.9168	    7.0644	   11.2331	  -21.1538	
   80.0000	 4.0535E-6	 4.0430E-6	 4.0630E-6	 4.0510E-6	 4.0570E-6	4.004742E-6	3.998538E-6	4.010039E-6	4.002650E-6	4.007739E-6	  -19.8176	    7.0638	   11.2628	  -21.1241	
   90.0000	 4.4013E-6	 4.3970E-6	 4.3960E-6	 4.4050E-6	 4.4070E-6	4.346140E-6	4.350418E-6	4.348377E-6	4.333003E-6	4.352764E-6	  -19.7210	    7.0917	   11.2989	  -21.0657	
  100.0000	 4.7458E-6	 4.7430E-6	 4.7510E-6	 4.7380E-6	 4.7510E-6	4.686133E-6	4.674696E-6	4.676859E-6	4.692373E-6	4.700604E-6	  -19.5225	    7.1279	   11.3150	  -21.0209	
  120.0000	 5.3670E-6	 5.3400E-6	 5.3650E-6	 5.3780E-6	 5.3850E-6	5.309152E-6	5.305886E-6	5.308268E-6	5.325175E-6	5.297280E-6	  -19.4284	    7.1279	   11.3134	  -21.0225	
  140.0000	 5.9055E-6	 5.9160E-6	 5.9160E-6	 5.8920E-6	 5.8980E-6	5.834871E-6	5.817827E-6	5.836524E-6	5.846709E-6	5.838423E-6	  -19.2936	    7.1561	   11.3308	  -20.9828	
  160.0000	 6.4720E-6	 6.4570E-6	 6.4760E-6	 6.4730E-6	 6.4820E-6	6.386635E-6	6.379810E-6	6.393949E-6	6.389437E-6	6.383344E-6	  -19.1740	    7.1465	   11.3257	  -20.9955	
  180.0000	 7.0023E-6	 6.9970E-6	 6.9820E-6	 7.0020E-6	 7.0280E-6	6.891089E-6	6.872203E-6	6.898894E-6	6.884761E-6	6.908499E-6	  -18.9984	    7.1824	   11.3378	  -20.9552	
  200.0000	 7.4915E-6	 7.4810E-6	 7.4730E-6	 7.5090E-6	 7.5030E-6	7.333510E-6	7.350642E-6	7.344640E-6	7.312555E-6	7.326204E-6	  -18.8763	    7.1241	   11.3374	  -21.0013	
  220.0000	 7.9485E-6	 7.8810E-6	 7.9540E-6	 7.9850E-6	 7.9740E-6	7.795386E-6	7.787055E-6	7.766073E-6	7.820909E-6	7.807507E-6	  -18.7669	    7.1859	   11.3409	  -20.9493	
  240.0000	 8.4068E-6	 8.4220E-6	 8.3860E-6	 8.4000E-6	 8.4190E-6	8.212009E-6	8.205569E-6	8.216846E-6	8.211928E-6	8.213695E-6	  -18.6142	    7.1765	   11.3539	  -20.9436	
  260.0000	 8.7772E-6	 8.7790E-6	 8.7680E-6	 8.7920E-6	 8.7700E-6	8.553336E-6	8.522802E-6	8.542505E-6	8.549119E-6	8.598918E-6	  -18.5557	    7.2092	   11.3574	  -20.9144	
  280.0000	 9.1390E-6	 9.1340E-6	 9.1240E-6	 9.1600E-6	 9.1380E-6	8.886745E-6	8.895497E-6	8.894935E-6	8.871738E-6	8.884809E-6	  -18.4386	    7.2141	   11.3514	  -20.9166	
  300.0000	 9.4898E-6	 9.5200E-6	 9.4860E-6	 9.4680E-6	 9.4850E-6	9.249634E-6	9.238157E-6	9.231616E-6	9.264532E-6	9.264230E-6	  -18.3826	    7.2275	   11.3536	  -20.9039	
  320.0000	 9.7583E-6	 9.7850E-6	 9.7320E-6	 9.7490E-6	 9.7670E-6	9.466300E-6	9.474445E-6	9.455135E-6	9.447214E-6	9.488408E-6	  -18.3343	    7.2262	   11.3599	  -20.8985	
  340.0000	 1.0065E-5	 1.0070E-5	 1.0080E-5	 1.0050E-5	 1.0060E-5	9.771103E-6	9.770964E-6	9.785836E-6	9.781455E-6	9.746156E-6	  -18.2936	    7.2216	   11.3763	  -20.8856	
  360.0000	 1.0322E-5	 1.0320E-5	 1.0300E-5	 1.0330E-5	 1.0340E-5	9.959627E-6	9.986273E-6	9.944342E-6	9.939868E-6	9.968025E-6	  -18.2834	    7.2652	   11.3960	  -20.8316	
  380.0000	 1.0562E-5	 1.0570E-5	 1.0570E-5	 1.0560E-5	 1.0550E-5	1.017979E-5	1.016664E-5	1.018255E-5	1.018392E-5	1.018607E-5	  -18.3012	    7.2675	   11.4102	  -20.8155	
  400.0000	 1.0792E-5	 1.0800E-5	 1.0770E-5	 1.0810E-5	 1.0790E-5	1.035943E-5	1.038123E-5	1.035910E-5	1.034060E-5	1.035678E-5	  -18.3088	    7.1840	   11.4443	  -20.8468	
  420.0000	 1.1013E-5	 1.1020E-5	 1.0990E-5	 1.1000E-5	 1.1040E-5	1.060570E-5	1.058764E-5	1.059566E-5	1.061321E-5	1.062630E-5	  -18.3394	    7.2084	   11.4817	  -20.7903	
  440.0000	 1.1188E-5	 1.1200E-5	 1.1160E-5	 1.1180E-5	 1.1210E-5	1.072374E-5	1.071519E-5	1.070607E-5	1.071296E-5	1.076075E-5	  -18.3674	    7.2520	   11.5092	  -20.7286	
  460.0000	 1.1353E-5	 1.1380E-5	 1.1380E-5	 1.1340E-5	 1.1310E-5	1.085034E-5	1.080944E-5	1.084767E-5	1.086883E-5	1.087541E-5	  -18.4132	    7.3105	   11.5459	  -20.6462	
  480.0000	 1.1555E-5	 1.1570E-5	 1.1540E-5	 1.1540E-5	 1.1570E-5	1.099532E-5	1.104561E-5	1.097664E-5	1.098131E-5	1.097770E-5	  -18.4361	    7.3001	   11.5585	  -20.6418	
  500.0000	 1.1702E-5	 1.1730E-5	 1.1700E-5	 1.1700E-5	 1.1680E-5	1.113828E-5	1.112094E-5	1.114826E-5	1.114005E-5	1.114388E-5	  -18.4819	    7.2953	   11.5901	  -20.6141	
  520.0000	 1.1925E-5	 1.1910E-5	 1.1900E-5	 1.1930E-5	 1.1960E-5	1.133495E-5	1.139986E-5	1.133882E-5	1.129265E-5	1.130846E-5	  -18.5379	    7.3320	   11.6404	  -20.5356	
  540.0000	 1.2102E-5	 1.2120E-5	 1.2100E-5	 1.2100E-5	 1.2090E-5	1.146317E-5	1.146839E-5	1.145361E-5	1.146629E-5	1.146439E-5	  -18.5811	    7.2866	   11.6701	  -20.5420	
  560.0000	 1.2328E-5	 1.2370E-5	 1.2320E-5	 1.2330E-5	 1.2290E-5	1.165013E-5	1.162630E-5	1.162832E-5	1.164027E-5	1.170562E-5	  -18.6142	    7.2762	   11.6841	  -20.5365	
  580.0000	 1.2580E-5	 1.2590E-5	 1.2630E-5	 1.2550E-5	 1.2550E-5	1.187062E-5	1.185771E-5	1.188420E-5	1.185128E-5	1.188927E-5	  -18.6371	    7.3092	   11.6999	  -20.4949	
  600.0000	 1.2883E-5	 1.2960E-5	 1.2900E-5	 1.2820E-5	 1.2850E-5	1.217094E-5	1.218416E-5	1.217062E-5	1.216663E-5	1.216234E-5	  -18.6855	    7.2853	   11.7154	  -20.4985	
  620.0000	 1.3208E-5	 1.3230E-5	 1.3210E-5	 1.3170E-5	 1.3220E-5	1.245034E-5	1.244755E-5	1.244953E-5	1.247101E-5	1.243325E-5	  -18.7134	    7.3027	   11.7328	  -20.4678	
  640.0000	 1.3613E-5	 1.3630E-5	 1.3610E-5	 1.3610E-5	 1.3600E-5	1.276992E-5	1.277571E-5	1.274463E-5	1.275200E-5	1.280736E-5	  -18.7313	    7.3025	   11.7347	  -20.4661	
  660.0000	 1.4042E-5	 1.4060E-5	 1.4040E-5	 1.4030E-5	 1.4040E-5	1.314124E-5	1.313445E-5	1.310728E-5	1.315133E-5	1.317191E-5	  -18.7414	    7.3642	   11.7524	  -20.4002	
  680.0000	 1.4552E-5	 1.4550E-5	 1.4520E-5	 1.4570E-5	 1.4570E-5	1.360000E-5	1.358826E-5	1.362193E-5	1.360331E-5	1.358649E-5	  -18.7491	    7.3815	   11.7638	  -20.3754	
  700.0000	 1.5095E-5	 1.5130E-5	 1.5150E-5	 1.5070E-5	 1.5030E-5	1.404480E-5	1.402851E-5	1.404236E-5	1.403003E-5	1.407829E-5	  -18.7363	    7.3686	   11.7679	  -20.3815	
  720.0000	 1.5700E-5	 1.5740E-5	 1.5720E-5	 1.5650E-5	 1.5690E-5	1.464233E-5	1.462613E-5	1.464861E-5	1.465377E-5	1.464083E-5	  -18.7185	    7.4077	   11.7796	  -20.3393	
  740.0000	 1.6420E-5	 1.6410E-5	 1.6410E-5	 1.6460E-5	 1.6400E-5	1.524261E-5	1.522557E-5	1.524972E-5	1.525075E-5	1.524441E-5	  -18.7058	    7.4549	   11.7878	  -20.2941	
  760.0000	 1.7085E-5	 1.7050E-5	 1.7070E-5	 1.7070E-5	 1.7150E-5	1.596727E-5	1.594881E-5	1.598299E-5	1.602790E-5	1.590938E-5	  -18.6778	    7.4495	   11.8071	  -20.2795	
  780.0000	 1.7875E-5	 1.7810E-5	 1.7890E-5	 1.7880E-5	 1.7920E-5	1.662354E-5	1.661175E-5	1.665416E-5	1.663966E-5	1.658858E-5	  -18.6244	    7.4713	   11.8182	  -20.2516	
  800.0000	 1.8742E-5	 1.8790E-5	 1.8770E-5	 1.8680E-5	 1.8730E-5	1.738483E-5	1.736956E-5	1.736900E-5	1.739502E-5	1.740576E-5	  -18.5760	    7.4766	   11.8238	  -20.2418	
  820.0000	 1.9640E-5	 1.9660E-5	 1.9610E-5	 1.9660E-5	 1.9630E-5	1.815736E-5	1.807386E-5	1.813508E-5	1.815642E-5	1.826408E-5	  -18.5226	    7.4170	   11.8128	  -20.2996	
  840.0000	 2.0585E-5	 2.0620E-5	 2.0630E-5	 2.0540E-5	 2.0550E-5	1.907492E-5	1.903256E-5	1.909198E-5	1.910714E-5	1.906799E-5	  -18.4590	    7.4374	   11.8121	  -20.2841	
  860.0000	 2.1735E-5	 2.1730E-5	 2.1700E-5	 2.1740E-5	 2.1770E-5	2.007322E-5	2.001891E-5	2.006983E-5	2.010862E-5	2.009553E-5	  -18.3979	    7.4291	   11.8197	  -20.2833	
  880.0000	 2.2747E-5	 2.2770E-5	 2.2810E-5	 2.2730E-5	 2.2680E-5	2.095616E-5	2.092951E-5	2.093191E-5	2.098933E-5	2.097389E-5	  -18.3572	    7.3990	   11.8166	  -20.3101	
  900.0000	 2.3905E-5	 2.3890E-5	 2.3900E-5	 2.3930E-5	 2.3900E-5	2.194352E-5	2.191138E-5	2.183855E-5	2.201831E-5	2.200585E-5	  -18.2579	    7.4411	   11.8090	  -20.2843	
  920.0000	 2.4983E-5	 2.4980E-5	 2.4970E-5	 2.4960E-5	 2.5020E-5	2.306825E-5	2.299066E-5	2.303614E-5	2.309972E-5	2.314647E-5	  -18.2249	    7.4411	   11.8014	  -20.2917	
  940.0000	 2.6263E-5	 2.6210E-5	 2.6240E-5	 2.6320E-5	 2.6280E-5	2.408477E-5	2.409371E-5	2.408895E-5	2.410447E-5	2.405194E-5	  -18.1740	    7.4898	   11.8106	  -20.2444	
  960.0000	 2.7370E-5	 2.7360E-5	 2.7340E-5	 2.7410E-5	 2.7370E-5	2.511511E-5	2.505266E-5	2.507408E-5	2.518059E-5	2.515310E-5	  -18.1383	    7.4778	   11.8096	  -20.2548	
  980.0000	 2.8528E-5	 2.8590E-5	 2.8490E-5	 2.8550E-5	 2.8480E-5	2.608377E-5	2.603481E-5	2.604190E-5	2.613048E-5	2.612790E-5	  -18.0823	    7.4671	   11.8283	  -20.2450	
 1000.0000	 2.9830E-5	 2.9770E-5	 2.9800E-5	 2.9850E-5	 2.9900E-5	2.733232E-5	2.735384E-5	2.727536E-5	2.736098E-5	2.733908E-5	  -18.0518	    7.4719	   11.8374	  -20.2323	
 1020.0000	 3.1070E-5	 3.1120E-5	 3.1060E-5	 3.1100E-5	 3.1000E-5	2.845235E-5	2.841120E-5	2.843818E-5	2.851639E-5	2.844365E-5	  -18.0238	    7.4713	   11.8381	  -20.2322	
 1040.0000	 3.2227E-5	 3.2210E-5	 3.2260E-5	 3.2230E-5	 3.2210E-5	2.946944E-5	2.938908E-5	2.950177E-5	2.950575E-5	2.948116E-5	  -18.0111	    7.5121	   11.8400	  -20.1982	
 1060.0000	 3.3427E-5	 3.3410E-5	 3.3380E-5	 3.3390E-5	 3.3530E-5	3.051450E-5	3.053483E-5	3.053026E-5	3.050382E-5	3.048907E-5	  -17.9933	    7.5452	   11.8416	  -20.1706	
 1080.0000	 3.4632E-5	 3.4760E-5	 3.4630E-5	 3.4580E-5	 3.4560E-5	3.149990E-5	3.148159E-5	3.152467E-5	3.150546E-5	3.148789E-5	  -17.9831	    7.5015	   11.8308	  -20.2155	
 1100.0000	 3.5682E-5	 3.5650E-5	 3.5730E-5	 3.5700E-5	 3.5650E-5	3.245783E-5	3.247058E-5	3.253008E-5	3.243403E-5	3.239663E-5	  -17.9780	    7.4997	   11.8333	  -20.2144	
