GCD Test
Bias: 5000.000000
IV_D0_CO143_LargeDiode_GRConnected_Irradiated_80min
Date/Time: 9/27/2021 7:17:58 PM
Sensor Name: CO143
Type: N
Annealing Status: Irradiated and Annealed at 60C for 80 min
Environment: 20C
Tester: Andrew Kent

Time Delay per Ramp Step (s): 0.500

CV Time Delay per Measurement (s) :0.500

AC Voltage (V): 0.500

Current Number of measurements per voltage: 4.000

IV Time Delay per Measurement (s) :0.000


BiasVoltage	Total Current_Avg	Total Current_0	Total Current_1	Total Current_2	Total Current_3	Bias Current_Avg	Bias Current_0	Bias Current_1	Bias Current_2	Bias Current_3	Temperature	Air_Temp	Humidity	Dewpoint	
    1.0000	 4.4548E-7	 4.4640E-7	 4.4770E-7	 4.4440E-7	 4.4340E-7	5.105912E-7	5.094684E-7	5.113988E-7	5.109667E-7	5.105310E-7	  -20.0516	   14.4887	    3.7786	  -27.7485	
    2.0000	 8.7775E-7	 8.7900E-7	 8.7600E-7	 8.7820E-7	 8.7780E-7	8.042465E-7	8.060993E-7	8.040890E-7	8.044838E-7	8.023138E-7	  -20.0491	   14.4760	    3.7489	  -27.8421	
    3.0000	 1.0775E-6	 1.0750E-6	 1.0750E-6	 1.0760E-6	 1.0840E-6	9.918577E-7	9.919437E-7	9.928006E-7	9.895442E-7	9.931424E-7	  -20.0516	   14.3652	    3.7157	  -28.0144	
    4.0000	 1.2490E-6	 1.2450E-6	 1.2480E-6	 1.2520E-6	 1.2510E-6	1.143250E-6	1.148395E-6	1.143039E-6	1.140495E-6	1.141073E-6	  -20.0720	   14.3652	    3.7011	  -28.0564	
    5.0000	 1.3933E-6	 1.3940E-6	 1.3920E-6	 1.3950E-6	 1.3920E-6	1.273832E-6	1.271041E-6	1.270486E-6	1.272400E-6	1.281400E-6	  -20.0720	   14.2814	    3.7113	  -28.0853	
    6.0000	 1.5332E-6	 1.5320E-6	 1.5370E-6	 1.5340E-6	 1.5300E-6	1.399329E-6	1.400191E-6	1.399372E-6	1.399479E-6	1.398274E-6	  -20.0720	   14.2814	    3.7157	  -28.0726	
    7.0000	 1.6577E-6	 1.6590E-6	 1.6560E-6	 1.6580E-6	 1.6580E-6	1.514342E-6	1.520181E-6	1.514067E-6	1.509604E-6	1.513515E-6	  -20.0644	   14.3854	    3.7533	  -27.8923	
    8.0000	 1.7818E-6	 1.7850E-6	 1.7830E-6	 1.7800E-6	 1.7790E-6	1.625239E-6	1.618646E-6	1.619884E-6	1.632278E-6	1.630146E-6	  -20.0694	   14.3406	    3.7628	  -27.8964	
    9.0000	 1.8890E-6	 1.8930E-6	 1.8890E-6	 1.8850E-6	 1.8890E-6	1.720297E-6	1.727862E-6	1.719742E-6	1.716908E-6	1.716677E-6	  -20.0491	   14.2702	    3.7732	  -27.9155	
   10.0000	 1.9918E-6	 1.9930E-6	 1.9960E-6	 1.9890E-6	 1.9890E-6	1.816797E-6	1.820994E-6	1.820313E-6	1.815662E-6	1.810218E-6	  -20.0440	   14.2026	    3.7732	  -27.9625	
   20.0000	 2.9078E-6	 2.9110E-6	 2.9170E-6	 2.9040E-6	 2.8990E-6	2.633551E-6	2.616944E-6	2.632443E-6	2.639205E-6	2.645611E-6	  -20.0465	   14.2843	    3.7957	  -27.8420	
   30.0000	 3.6563E-6	 3.6750E-6	 3.6570E-6	 3.6430E-6	 3.6500E-6	3.289260E-6	3.291187E-6	3.279665E-6	3.299226E-6	3.286960E-6	  -20.0440	   14.2952	    3.7929	  -27.8426	
   40.0000	 4.3213E-6	 4.3230E-6	 4.3260E-6	 4.3170E-6	 4.3190E-6	3.862464E-6	3.856732E-6	3.862438E-6	3.855273E-6	3.875414E-6	  -20.0440	   14.3229	    3.7922	  -27.8251	
   50.0000	 4.9315E-6	 4.9330E-6	 4.9500E-6	 4.9240E-6	 4.9190E-6	4.383027E-6	4.376412E-6	4.385092E-6	4.374175E-6	4.396429E-6	  -20.0440	   14.3538	    3.8163	  -27.7357	
   60.0000	 5.5025E-6	 5.5030E-6	 5.5110E-6	 5.4930E-6	 5.5030E-6	4.860614E-6	4.870912E-6	4.850557E-6	4.840809E-6	4.880178E-6	  -20.0516	   14.3685	    3.8210	  -27.7122	
   70.0000	 6.0540E-6	 6.0600E-6	 6.0490E-6	 6.0660E-6	 6.0410E-6	5.338374E-6	5.343839E-6	5.340319E-6	5.339552E-6	5.329786E-6	  -20.0364	   14.3685	    3.8400	  -27.6589	
   80.0000	 6.5705E-6	 6.5720E-6	 6.5720E-6	 6.5660E-6	 6.5720E-6	5.776498E-6	5.781897E-6	5.769159E-6	5.770616E-6	5.784321E-6	  -20.0567	   14.3103	    3.8457	  -27.6835	
   90.0000	 7.0177E-6	 6.9960E-6	 7.0080E-6	 7.0240E-6	 7.0430E-6	6.187476E-6	6.187854E-6	6.198468E-6	6.200500E-6	6.163083E-6	  -20.0440	   14.3343	    3.8650	  -27.6130	
  100.0000	 7.4967E-6	 7.4910E-6	 7.5030E-6	 7.4990E-6	 7.4940E-6	6.590651E-6	6.613919E-6	6.612476E-6	6.569029E-6	6.567180E-6	  -20.0491	   14.2649	    3.8710	  -27.6446	
  120.0000	 8.4038E-6	 8.4140E-6	 8.4290E-6	 8.3790E-6	 8.3930E-6	7.331880E-6	7.364805E-6	7.337490E-6	7.304571E-6	7.320654E-6	  -20.0567	   14.2641	    3.8656	  -27.6601	
  140.0000	 9.9170E-6	 9.6730E-6	 9.8510E-6	 9.9790E-6	 1.0165E-5	8.047962E-6	8.050073E-6	8.049626E-6	8.043219E-6	8.048931E-6	  -20.0618	   14.2981	    3.8741	  -27.6126	
  160.0000	 1.3623E-5	 1.3280E-5	 1.3550E-5	 1.3760E-5	 1.3900E-5	8.601213E-6	8.579543E-6	8.580721E-6	8.612912E-6	8.631676E-6	  -20.0287	   14.2181	    3.8510	  -27.7326	
  180.0000	 1.7550E-5	 1.7330E-5	 1.7570E-5	 1.7620E-5	 1.7680E-5	9.153724E-6	9.154593E-6	9.142546E-6	9.152032E-6	9.165725E-6	  -20.0465	   14.1724	    3.8416	  -27.7910	
  200.0000	 2.1040E-5	 2.0920E-5	 2.1030E-5	 2.1050E-5	 2.1160E-5	9.628231E-6	9.688347E-6	9.611267E-6	9.578566E-6	9.634745E-6	  -20.0516	   14.1708	    3.8349	  -27.8106	
  220.0000	 2.4387E-5	 2.4290E-5	 2.4350E-5	 2.4440E-5	 2.4470E-5	1.011015E-5	1.009626E-5	1.013413E-5	1.011751E-5	1.009270E-5	  -20.0440	   14.2676	    3.8147	  -27.8001	
  240.0000	 2.7432E-5	 2.7300E-5	 2.7410E-5	 2.7440E-5	 2.7580E-5	1.057863E-5	1.059049E-5	1.058129E-5	1.054940E-5	1.059335E-5	  -20.0491	   14.1984	    3.7849	  -27.9322	
  260.0000	 3.0342E-5	 3.0270E-5	 3.0350E-5	 3.0390E-5	 3.0360E-5	1.095943E-5	1.093917E-5	1.094444E-5	1.094232E-5	1.101179E-5	  -20.0440	   14.0913	    3.7713	  -28.0452	
  280.0000	 3.3060E-5	 3.3090E-5	 3.3110E-5	 3.3010E-5	 3.3030E-5	1.146414E-5	1.143522E-5	1.149031E-5	1.143322E-5	1.149780E-5	  -20.0440	   14.0928	    3.7555	  -28.0891	
  300.0000	 3.5805E-5	 3.5770E-5	 3.5880E-5	 3.5830E-5	 3.5740E-5	1.186147E-5	1.183799E-5	1.186094E-5	1.187605E-5	1.187090E-5	  -20.0389	   14.1141	    3.7581	  -28.0672	
  320.0000	 3.8365E-5	 3.8300E-5	 3.8330E-5	 3.8410E-5	 3.8420E-5	1.229714E-5	1.229649E-5	1.237760E-5	1.227132E-5	1.224316E-5	  -20.0211	   14.0597	    3.7660	  -28.0824	
  340.0000	 4.0872E-5	 4.0800E-5	 4.0800E-5	 4.0810E-5	 4.1080E-5	1.270165E-5	1.268692E-5	1.271365E-5	1.271402E-5	1.269202E-5	  -20.0211	   14.0811	    3.7910	  -27.9967	
  360.0000	 4.3202E-5	 4.3250E-5	 4.3140E-5	 4.3260E-5	 4.3160E-5	1.306043E-5	1.309555E-5	1.308142E-5	1.300554E-5	1.305921E-5	  -20.0211	   14.1087	    3.8106	  -27.9222	
  380.0000	 4.5613E-5	 4.5590E-5	 4.5620E-5	 4.5550E-5	 4.5690E-5	1.350390E-5	1.357098E-5	1.352103E-5	1.347077E-5	1.345282E-5	  -20.0262	   14.1116	    3.8194	  -27.8953	
  400.0000	 4.8000E-5	 4.7960E-5	 4.8040E-5	 4.7980E-5	 4.8020E-5	1.391268E-5	1.393464E-5	1.391986E-5	1.388347E-5	1.391274E-5	  -20.0033	   14.1961	    3.8080	  -27.8686	
  420.0000	 5.0273E-5	 5.0260E-5	 5.0280E-5	 5.0210E-5	 5.0340E-5	1.427078E-5	1.429367E-5	1.429548E-5	1.424458E-5	1.424939E-5	  -20.0084	   14.1818	    3.7672	  -27.9940	
  440.0000	 5.2285E-5	 5.2360E-5	 5.2200E-5	 5.2280E-5	 5.2300E-5	1.458147E-5	1.456329E-5	1.460140E-5	1.457923E-5	1.458197E-5	  -20.0262	   14.0669	    3.7903	  -28.0084	
  460.0000	 5.4405E-5	 5.4430E-5	 5.4500E-5	 5.4320E-5	 5.4370E-5	1.500993E-5	1.500643E-5	1.502494E-5	1.500530E-5	1.500303E-5	  -20.0109	   14.1316	    3.7998	  -27.9366	
  480.0000	 5.6737E-5	 5.6620E-5	 5.6630E-5	 5.6850E-5	 5.6850E-5	1.539480E-5	1.538607E-5	1.541689E-5	1.543800E-5	1.533825E-5	  -20.0109	   14.1542	    3.8359	  -27.8195	
  500.0000	 5.8778E-5	 5.8990E-5	 5.8880E-5	 5.8580E-5	 5.8660E-5	1.571595E-5	1.566982E-5	1.569517E-5	1.578005E-5	1.571875E-5	  -20.0033	   14.1397	    3.8213	  -27.8704	
  520.0000	 6.0845E-5	 6.0730E-5	 6.0850E-5	 6.0910E-5	 6.0890E-5	1.608939E-5	1.606362E-5	1.610905E-5	1.608707E-5	1.609780E-5	  -20.0084	   14.1397	    3.8172	  -27.8819	
  540.0000	 6.2830E-5	 6.2860E-5	 6.2790E-5	 6.2870E-5	 6.2800E-5	1.642539E-5	1.646972E-5	1.639574E-5	1.643767E-5	1.639843E-5	  -20.0033	   14.0554	    3.7736	  -28.0638	
  560.0000	 6.4890E-5	 6.4740E-5	 6.4770E-5	 6.4970E-5	 6.5080E-5	1.671863E-5	1.675841E-5	1.667863E-5	1.672283E-5	1.671465E-5	  -19.9982	   14.0552	    3.7527	  -28.1234	
  580.0000	 6.6837E-5	 6.6860E-5	 6.6740E-5	 6.6920E-5	 6.6830E-5	1.700733E-5	1.708103E-5	1.700013E-5	1.698086E-5	1.696729E-5	  -20.0160	   14.0523	    3.7536	  -28.1227	
  600.0000	 6.8717E-5	 6.8570E-5	 6.8690E-5	 6.8700E-5	 6.8910E-5	1.742037E-5	1.745453E-5	1.745045E-5	1.738707E-5	1.738942E-5	  -20.0160	   13.9838	    3.7533	  -28.1711	
  620.0000	 7.0575E-5	 7.0420E-5	 7.0630E-5	 7.0530E-5	 7.0720E-5	1.771665E-5	1.765513E-5	1.769343E-5	1.771689E-5	1.780114E-5	  -20.0211	   13.9647	    3.7660	  -28.1484	
  640.0000	 7.2387E-5	 7.2450E-5	 7.2390E-5	 7.2320E-5	 7.2390E-5	1.806708E-5	1.806393E-5	1.807221E-5	1.809337E-5	1.803880E-5	  -20.0262	   14.0161	    3.7596	  -28.1307	
  660.0000	 7.4403E-5	 7.4460E-5	 7.4380E-5	 7.4310E-5	 7.4460E-5	1.832970E-5	1.833840E-5	1.830923E-5	1.840297E-5	1.826820E-5	  -20.0135	   13.9906	    3.7448	  -28.1908	
  680.0000	 7.6573E-5	 7.6680E-5	 7.6600E-5	 7.6390E-5	 7.6620E-5	1.856377E-5	1.862051E-5	1.857750E-5	1.851577E-5	1.854130E-5	  -20.0313	   13.9290	    3.7562	  -28.2011	
  700.0000	 7.8270E-5	 7.8210E-5	 7.8390E-5	 7.8180E-5	 7.8300E-5	1.900084E-5	1.903544E-5	1.901993E-5	1.896820E-5	1.897978E-5	  -20.0440	   13.9190	    3.7672	  -28.1765	
  720.0000	 8.0147E-5	 8.0010E-5	 8.0170E-5	 8.0360E-5	 8.0050E-5	1.923750E-5	1.920229E-5	1.920509E-5	1.925882E-5	1.928380E-5	  -20.0313	   13.9918	    3.7701	  -28.1179	
  740.0000	 8.2090E-5	 8.1990E-5	 8.2200E-5	 8.2120E-5	 8.2050E-5	1.950644E-5	1.951821E-5	1.955529E-5	1.949412E-5	1.945815E-5	  -20.0237	   14.0171	    3.7957	  -28.0277	
  760.0000	 8.3915E-5	 8.3860E-5	 8.3810E-5	 8.3860E-5	 8.4130E-5	1.984777E-5	1.985229E-5	1.980722E-5	1.986104E-5	1.987053E-5	  -20.0313	   13.9705	    3.8049	  -28.0343	
  780.0000	 8.5747E-5	 8.5600E-5	 8.5730E-5	 8.5970E-5	 8.5690E-5	2.009141E-5	2.001622E-5	2.004209E-5	2.011310E-5	2.019422E-5	  -20.0287	   13.9456	    3.8099	  -28.0374	
  800.0000	 8.7892E-5	 8.7860E-5	 8.7930E-5	 8.7670E-5	 8.8110E-5	2.042267E-5	2.047697E-5	2.037970E-5	2.042667E-5	2.040732E-5	  -20.0313	   13.9352	    3.8074	  -28.0517	
  820.0000	 8.9535E-5	 8.9730E-5	 8.9370E-5	 8.9500E-5	 8.9540E-5	2.063539E-5	2.066057E-5	2.062578E-5	2.060222E-5	2.065299E-5	  -20.0415	   13.8244	    3.7891	  -28.1805	
  840.0000	 9.1650E-5	 9.1540E-5	 9.1590E-5	 9.1620E-5	 9.1850E-5	2.084505E-5	2.094538E-5	2.085486E-5	2.078446E-5	2.079548E-5	  -20.0389	   13.7517	    3.7834	  -28.2471	
  860.0000	 9.3455E-5	 9.3650E-5	 9.3780E-5	 9.3210E-5	 9.3180E-5	2.122119E-5	2.110071E-5	2.124010E-5	2.130542E-5	2.123853E-5	  -20.0338	   13.7796	    3.7296	  -28.3807	
  880.0000	 9.5060E-5	 9.5290E-5	 9.5120E-5	 9.4830E-5	 9.5000E-5	2.139356E-5	2.136321E-5	2.140600E-5	2.139151E-5	2.141351E-5	  -20.0211	   13.7796	    3.7302	  -28.3789	
  900.0000	 9.7228E-5	 9.7150E-5	 9.7140E-5	 9.7370E-5	 9.7250E-5	2.161964E-5	2.162740E-5	2.161260E-5	2.164404E-5	2.159451E-5	  -19.9957	   13.8492	    3.6600	  -28.5334	
  920.0000	 9.8830E-5	 9.9160E-5	 9.8850E-5	 9.8560E-5	 9.8750E-5	2.203221E-5	2.202412E-5	2.207427E-5	2.205229E-5	2.197818E-5	  -19.9982	   13.8326	    3.6442	  -28.5911	
  940.0000	 1.0095E-4	 1.0100E-4	 1.0070E-4	 1.0100E-4	 1.0110E-4	2.215958E-5	2.221829E-5	2.216628E-5	2.217911E-5	2.207463E-5	  -20.0084	   13.8354	    3.6316	  -28.6262	
  960.0000	 1.0283E-4	 1.0280E-4	 1.0300E-4	 1.0260E-4	 1.0290E-4	2.242028E-5	2.242382E-5	2.240729E-5	2.246888E-5	2.238112E-5	  -19.9957	   13.8504	    3.6271	  -28.6288	
  980.0000	 1.0483E-4	 1.0470E-4	 1.0490E-4	 1.0480E-4	 1.0490E-4	2.278214E-5	2.270770E-5	2.269252E-5	2.290366E-5	2.282469E-5	  -19.9880	   13.8737	    3.6113	  -28.6592	
 1000.0000	 1.0705E-4	 1.0710E-4	 1.0720E-4	 1.0730E-4	 1.0660E-4	2.284073E-5	2.277223E-5	2.287941E-5	2.286793E-5	2.284336E-5	  -19.9906	   13.9012	    3.5889	  -28.7066	
 1020.0000	 1.0870E-4	 1.0870E-4	 1.0880E-4	 1.0890E-4	 1.0840E-4	2.312398E-5	2.306759E-5	2.314572E-5	2.313220E-5	2.315041E-5	  -19.9880	   13.9012	    3.5645	  -28.7791	
 1040.0000	 1.1087E-4	 1.1090E-4	 1.1110E-4	 1.1070E-4	 1.1080E-4	2.332565E-5	2.329391E-5	2.327967E-5	2.333419E-5	2.339481E-5	  -20.0008	   13.8533	    3.5572	  -28.8339	
 1060.0000	 1.1277E-4	 1.1290E-4	 1.1280E-4	 1.1270E-4	 1.1270E-4	2.359382E-5	2.359717E-5	2.354639E-5	2.364153E-5	2.359018E-5	  -19.9906	   13.8785	    3.5648	  -28.7938	
 1080.0000	 1.1523E-4	 1.1550E-4	 1.1500E-4	 1.1510E-4	 1.1530E-4	2.387245E-5	2.389440E-5	2.391243E-5	2.381937E-5	2.386360E-5	  -20.0084	   13.8809	    3.5531	  -28.8271	
 1100.0000	 1.1725E-4	 1.1730E-4	 1.1730E-4	 1.1720E-4	 1.1720E-4	2.403918E-5	2.406844E-5	2.399029E-5	2.405535E-5	2.404263E-5	  -20.0033	   13.8210	    3.5693	  -28.8203	
