38874_044_2-S_HM_XX_Irrad_20min
Date/Time: 4/22/2022 1:59:46 PM
Sensor Name: 38874_044_2-S_HM_XX
Station: Tesla
Annealing Status: 20 min
Environment: -20C
Tester: Eric Spencer
Notes: Irradiated at RINSC

Time Delay per Ramp Step (s): 1.000

CV Time Delay per Measurement (s) :0.500

AC Voltage (V): 0.500

Current Number of measurements per voltage: 4.000

IV Time Delay per Measurement (s) :0.500


BiasVoltage	Bias Current_Avg	Bias Current_0	Bias Current_1	Bias Current_2	Bias Current_3	Temperature	Air_Temp	Humidity	Dewpoint	
  -10.0000	-1.9000E-6	-1.9000E-6	-1.9000E-6	-1.9000E-6	-1.9000E-6	  -19.9000	   23.7627	    1.6961	    0.0000	
  -20.0000	-2.5500E-6	-2.5500E-6	-2.5500E-6	-2.5500E-6	-2.5500E-6	  -19.9000	   23.7627	    1.6961	    0.0000	
  -30.0000	-3.0700E-6	-3.0700E-6	-3.0700E-6	-3.0700E-6	-3.0700E-6	  -19.9000	   23.7627	    1.6961	    0.0000	
  -40.0000	-3.5100E-6	-3.5100E-6	-3.5100E-6	-3.5100E-6	-3.5100E-6	  -19.9000	   23.7627	    1.6961	    0.0000	
  -50.0000	-3.9000E-6	-3.9000E-6	-3.9000E-6	-3.9000E-6	-3.9000E-6	  -19.9000	   23.7627	    1.6961	    0.0000	
  -60.0000	-4.2500E-6	-4.2500E-6	-4.2500E-6	-4.2500E-6	-4.2500E-6	  -19.9000	   23.7627	    1.6961	    0.0000	
  -70.0000	-4.5800E-6	-4.5800E-6	-4.5800E-6	-4.5800E-6	-4.5800E-6	  -19.9000	   23.7627	    1.6961	    0.0000	
  -80.0000	-4.8900E-6	-4.8900E-6	-4.8900E-6	-4.8900E-6	-4.8900E-6	  -19.9000	   23.7627	    1.6961	    0.0000	
  -90.0000	-5.1900E-6	-5.1900E-6	-5.1900E-6	-5.1900E-6	-5.1900E-6	  -19.9000	   23.7627	    1.6961	    0.0000	
 -100.0000	-5.4700E-6	-5.4700E-6	-5.4700E-6	-5.4700E-6	-5.4700E-6	  -19.9000	   23.7627	    1.6961	    0.0000	
 -110.0000	-5.7400E-6	-5.7400E-6	-5.7400E-6	-5.7400E-6	-5.7400E-6	  -19.9000	   23.7627	    1.6961	    0.0000	
 -120.0000	-5.9900E-6	-5.9900E-6	-5.9900E-6	-5.9900E-6	-5.9900E-6	  -19.9000	   23.7627	    1.6961	    0.0000	
 -130.0000	-6.2400E-6	-6.2400E-6	-6.2400E-6	-6.2400E-6	-6.2400E-6	  -19.9000	   23.7627	    1.6961	    0.0000	
 -140.0000	-6.4800E-6	-6.4800E-6	-6.4800E-6	-6.4800E-6	-6.4800E-6	  -19.9000	   23.7627	    1.6961	    0.0000	
 -150.0000	-6.7000E-6	-6.7000E-6	-6.7000E-6	-6.7000E-6	-6.7000E-6	  -19.9000	   23.7627	    1.6961	    0.0000	
 -160.0000	-6.9200E-6	-6.9200E-6	-6.9200E-6	-6.9200E-6	-6.9200E-6	  -19.9000	   23.7627	    1.6961	    0.0000	
 -170.0000	-7.1400E-6	-7.1400E-6	-7.1400E-6	-7.1400E-6	-7.1400E-6	  -19.9000	   23.7627	    1.6961	    0.0000	
 -180.0000	-7.3500E-6	-7.3500E-6	-7.3500E-6	-7.3500E-6	-7.3500E-6	  -19.9000	   23.7627	    1.6961	    0.0000	
 -190.0000	-7.5400E-6	-7.5400E-6	-7.5400E-6	-7.5400E-6	-7.5400E-6	  -19.9000	   23.7627	    1.6961	    0.0000	
 -200.0000	-7.7400E-6	-7.7400E-6	-7.7400E-6	-7.7400E-6	-7.7400E-6	  -19.9000	   23.7627	    1.6961	    0.0000	
 -210.0000	-7.9200E-6	-7.9200E-6	-7.9200E-6	-7.9200E-6	-7.9200E-6	  -19.9000	   23.7627	    1.6961	    0.0000	
 -220.0000	-8.1000E-6	-8.1000E-6	-8.1000E-6	-8.1000E-6	-8.1000E-6	  -19.9000	   23.7627	    1.6961	    0.0000	
 -230.0000	-8.2700E-6	-8.2700E-6	-8.2700E-6	-8.2700E-6	-8.2700E-6	  -19.9000	   23.7627	    1.6961	    0.0000	
 -240.0000	-8.4400E-6	-8.4400E-6	-8.4400E-6	-8.4400E-6	-8.4400E-6	  -19.9000	   23.7627	    1.6961	    0.0000	
 -250.0000	-8.6000E-6	-8.6000E-6	-8.6000E-6	-8.6000E-6	-8.6000E-6	  -19.9000	   23.7627	    1.6961	    0.0000	
 -260.0000	-8.7500E-6	-8.7500E-6	-8.7500E-6	-8.7500E-6	-8.7500E-6	  -19.9000	   23.7627	    1.6961	    0.0000	
 -270.0000	-8.8900E-6	-8.8900E-6	-8.8900E-6	-8.8900E-6	-8.8900E-6	  -19.9000	   23.7627	    1.6961	    0.0000	
 -280.0000	-9.0300E-6	-9.0300E-6	-9.0300E-6	-9.0300E-6	-9.0300E-6	  -19.9000	   23.7627	    1.6961	    0.0000	
 -290.0000	-9.1600E-6	-9.1600E-6	-9.1600E-6	-9.1600E-6	-9.1600E-6	  -19.9000	   23.7627	    1.6961	    0.0000	
 -300.0000	-9.2900E-6	-9.2900E-6	-9.2900E-6	-9.2900E-6	-9.2900E-6	  -19.9000	   23.7627	    1.6961	    0.0000	
 -310.0000	-9.4100E-6	-9.4100E-6	-9.4100E-6	-9.4100E-6	-9.4100E-6	  -19.9000	   23.7627	    1.6961	    0.0000	
 -320.0000	-9.5300E-6	-9.5300E-6	-9.5300E-6	-9.5300E-6	-9.5300E-6	  -19.9000	   23.7627	    1.6961	    0.0000	
 -330.0000	-9.6400E-6	-9.6400E-6	-9.6400E-6	-9.6400E-6	-9.6400E-6	  -19.9000	   23.7627	    1.6961	    0.0000	
 -340.0000	-9.7500E-6	-9.7500E-6	-9.7500E-6	-9.7500E-6	-9.7500E-6	  -19.9000	   23.7627	    1.6961	    0.0000	
 -350.0000	-9.8500E-6	-9.8500E-6	-9.8500E-6	-9.8500E-6	-9.8500E-6	  -19.9000	   23.7627	    1.6961	    0.0000	
 -360.0000	-9.9500E-6	-9.9500E-6	-9.9500E-6	-9.9500E-6	-9.9500E-6	  -19.9000	   23.7627	    1.6961	    0.0000	
 -370.0000	-1.0050E-5	-1.0050E-5	-1.0050E-5	-1.0050E-5	-1.0050E-5	  -19.9000	   23.7627	    1.6961	    0.0000	
 -380.0000	-1.0140E-5	-1.0140E-5	-1.0140E-5	-1.0140E-5	-1.0140E-5	  -19.9000	   23.7627	    1.6961	    0.0000	
 -390.0000	-1.0230E-5	-1.0230E-5	-1.0230E-5	-1.0230E-5	-1.0230E-5	  -19.9000	   23.7627	    1.6961	    0.0000	
 -400.0000	-1.0320E-5	-1.0320E-5	-1.0320E-5	-1.0320E-5	-1.0320E-5	  -19.9000	   23.7627	    1.6961	    0.0000	
 -410.0000	-1.0410E-5	-1.0410E-5	-1.0410E-5	-1.0410E-5	-1.0410E-5	  -19.9000	   23.7627	    1.6961	    0.0000	
 -420.0000	-1.0480E-5	-1.0480E-5	-1.0480E-5	-1.0480E-5	-1.0480E-5	  -19.9000	   23.7627	    1.6961	    0.0000	
 -430.0000	-1.0560E-5	-1.0560E-5	-1.0560E-5	-1.0560E-5	-1.0560E-5	  -19.9000	   23.7627	    1.6961	    0.0000	
 -440.0000	-1.0640E-5	-1.0640E-5	-1.0640E-5	-1.0640E-5	-1.0640E-5	  -19.9000	   23.7627	    1.6961	    0.0000	
 -450.0000	-1.0710E-5	-1.0710E-5	-1.0710E-5	-1.0710E-5	-1.0710E-5	  -19.9000	   23.7627	    1.6961	    0.0000	
 -460.0000	-1.0790E-5	-1.0790E-5	-1.0790E-5	-1.0790E-5	-1.0790E-5	  -19.9000	   23.7627	    1.6961	    0.0000	
 -470.0000	-1.0870E-5	-1.0870E-5	-1.0870E-5	-1.0870E-5	-1.0870E-5	  -19.9000	   23.7627	    1.6961	    0.0000	
 -480.0000	-1.0930E-5	-1.0930E-5	-1.0930E-5	-1.0930E-5	-1.0930E-5	  -19.9000	   23.7627	    1.6961	    0.0000	
 -490.0000	-1.0990E-5	-1.0990E-5	-1.0990E-5	-1.0990E-5	-1.0990E-5	  -19.9000	   23.7627	    1.6961	    0.0000	
 -500.0000	-1.1060E-5	-1.1060E-5	-1.1060E-5	-1.1060E-5	-1.1060E-5	  -19.9000	   23.7627	    1.6961	    0.0000	
 -510.0000	-1.1130E-5	-1.1130E-5	-1.1130E-5	-1.1130E-5	-1.1130E-5	  -19.9000	   23.7627	    1.6961	    0.0000	
 -520.0000	-1.1190E-5	-1.1190E-5	-1.1190E-5	-1.1190E-5	-1.1190E-5	  -19.9000	   23.7627	    1.6961	    0.0000	
 -530.0000	-1.1250E-5	-1.1250E-5	-1.1250E-5	-1.1250E-5	-1.1250E-5	  -19.9000	   23.7627	    1.6961	    0.0000	
 -540.0000	-1.1310E-5	-1.1310E-5	-1.1310E-5	-1.1310E-5	-1.1310E-5	  -19.9000	   23.7627	    1.6961	    0.0000	
 -550.0000	-1.1360E-5	-1.1360E-5	-1.1360E-5	-1.1360E-5	-1.1360E-5	  -19.9000	   23.7627	    1.6961	    0.0000	
 -560.0000	-1.1420E-5	-1.1420E-5	-1.1420E-5	-1.1420E-5	-1.1420E-5	  -19.9000	   23.7627	    1.6961	    0.0000	
 -570.0000	-1.1480E-5	-1.1480E-5	-1.1480E-5	-1.1480E-5	-1.1480E-5	  -19.9000	   23.7627	    1.6961	    0.0000	
 -580.0000	-1.1540E-5	-1.1540E-5	-1.1540E-5	-1.1540E-5	-1.1540E-5	  -19.9000	   23.7627	    1.6961	    0.0000	
 -590.0000	-1.1580E-5	-1.1580E-5	-1.1580E-5	-1.1580E-5	-1.1580E-5	  -19.9000	   23.7627	    1.6961	    0.0000	
 -600.0000	-1.1640E-5	-1.1640E-5	-1.1640E-5	-1.1640E-5	-1.1640E-5	  -19.9000	   23.7627	    1.6961	    0.0000	
 -610.0000	-1.1690E-5	-1.1690E-5	-1.1690E-5	-1.1690E-5	-1.1690E-5	  -19.9000	   23.7627	    1.6961	    0.0000	
 -620.0000	-1.1740E-5	-1.1740E-5	-1.1740E-5	-1.1740E-5	-1.1740E-5	  -19.9000	   23.7627	    1.6961	    0.0000	
 -630.0000	-1.1800E-5	-1.1800E-5	-1.1800E-5	-1.1800E-5	-1.1800E-5	  -19.9000	   23.7627	    1.6961	    0.0000	
 -640.0000	-1.1850E-5	-1.1850E-5	-1.1850E-5	-1.1850E-5	-1.1850E-5	  -19.9000	   23.7627	    1.6961	    0.0000	
 -650.0000	-1.1890E-5	-1.1890E-5	-1.1890E-5	-1.1890E-5	-1.1890E-5	  -19.9000	   23.7627	    1.6961	    0.0000	
 -660.0000	-1.1930E-5	-1.1930E-5	-1.1930E-5	-1.1930E-5	-1.1930E-5	  -19.9000	   23.7627	    1.6961	    0.0000	
 -670.0000	-1.1980E-5	-1.1980E-5	-1.1980E-5	-1.1980E-5	-1.1980E-5	  -19.9000	   23.7627	    1.6961	    0.0000	
 -680.0000	-1.2030E-5	-1.2030E-5	-1.2030E-5	-1.2030E-5	-1.2030E-5	  -19.9000	   23.7627	    1.6961	    0.0000	
 -690.0000	-1.2080E-5	-1.2080E-5	-1.2080E-5	-1.2080E-5	-1.2080E-5	  -19.9000	   23.7627	    1.6961	    0.0000	
 -700.0000	-1.2120E-5	-1.2120E-5	-1.2120E-5	-1.2120E-5	-1.2120E-5	  -19.9000	   23.7627	    1.6961	    0.0000	
 -710.0000	-1.2170E-5	-1.2170E-5	-1.2170E-5	-1.2170E-5	-1.2170E-5	  -19.9000	   23.7627	    1.6961	    0.0000	
 -720.0000	-1.2210E-5	-1.2210E-5	-1.2210E-5	-1.2210E-5	-1.2210E-5	  -19.9000	   23.7627	    1.6961	    0.0000	
 -730.0000	-1.2250E-5	-1.2250E-5	-1.2250E-5	-1.2250E-5	-1.2250E-5	  -19.9000	   23.7627	    1.6961	    0.0000	
 -740.0000	-1.2290E-5	-1.2290E-5	-1.2290E-5	-1.2290E-5	-1.2290E-5	  -19.9000	   23.7627	    1.6961	    0.0000	
 -750.0000	-1.2340E-5	-1.2340E-5	-1.2340E-5	-1.2340E-5	-1.2340E-5	  -19.9000	   23.7627	    1.6961	    0.0000	
 -760.0000	-1.2380E-5	-1.2380E-5	-1.2380E-5	-1.2380E-5	-1.2380E-5	  -19.9000	   23.7627	    1.6961	    0.0000	
 -770.0000	-1.2430E-5	-1.2430E-5	-1.2430E-5	-1.2430E-5	-1.2430E-5	  -19.9000	   23.7627	    1.6961	    0.0000	
 -780.0000	-1.2470E-5	-1.2470E-5	-1.2470E-5	-1.2470E-5	-1.2470E-5	  -19.9000	   23.7627	    1.6961	    0.0000	
 -790.0000	-1.2510E-5	-1.2510E-5	-1.2510E-5	-1.2510E-5	-1.2510E-5	  -19.9000	   23.7627	    1.6961	    0.0000	
 -800.0000	-1.2560E-5	-1.2560E-5	-1.2560E-5	-1.2560E-5	-1.2560E-5	  -19.9000	   23.7627	    1.6961	    0.0000	
 -810.0000	-1.2590E-5	-1.2590E-5	-1.2590E-5	-1.2590E-5	-1.2590E-5	  -19.9000	   23.7627	    1.6961	    0.0000	
 -820.0000	-1.2630E-5	-1.2630E-5	-1.2630E-5	-1.2630E-5	-1.2630E-5	  -19.9000	   23.7627	    1.6961	    0.0000	
 -830.0000	-1.2670E-5	-1.2670E-5	-1.2670E-5	-1.2670E-5	-1.2670E-5	  -19.9000	   23.7627	    1.6961	    0.0000	
 -840.0000	-1.2720E-5	-1.2720E-5	-1.2720E-5	-1.2720E-5	-1.2720E-5	  -19.9000	   23.7627	    1.6961	    0.0000	
 -850.0000	-1.2760E-5	-1.2760E-5	-1.2760E-5	-1.2760E-5	-1.2760E-5	  -19.9000	   23.7627	    1.6961	    0.0000	
 -860.0000	-1.2800E-5	-1.2800E-5	-1.2800E-5	-1.2800E-5	-1.2800E-5	  -19.9000	   23.7627	    1.6961	    0.0000	
 -870.0000	-1.2840E-5	-1.2840E-5	-1.2840E-5	-1.2840E-5	-1.2840E-5	  -19.9000	   23.7627	    1.6961	    0.0000	
 -880.0000	-1.2880E-5	-1.2880E-5	-1.2880E-5	-1.2880E-5	-1.2880E-5	  -19.9000	   23.7627	    1.6961	    0.0000	
 -890.0000	-1.2920E-5	-1.2920E-5	-1.2920E-5	-1.2920E-5	-1.2920E-5	  -19.9000	   23.7627	    1.6961	    0.0000	
 -900.0000	-1.2960E-5	-1.2960E-5	-1.2960E-5	-1.2960E-5	-1.2960E-5	  -19.9000	   23.7627	    1.6961	    0.0000	
 -910.0000	-1.3000E-5	-1.3000E-5	-1.3000E-5	-1.3000E-5	-1.3000E-5	  -19.9000	   23.7627	    1.6961	    0.0000	
 -920.0000	-1.3050E-5	-1.3050E-5	-1.3050E-5	-1.3050E-5	-1.3050E-5	  -19.9000	   23.7627	    1.6961	    0.0000	
 -930.0000	-1.3090E-5	-1.3090E-5	-1.3090E-5	-1.3090E-5	-1.3090E-5	  -19.9000	   23.7627	    1.6961	    0.0000	
 -940.0000	-1.3130E-5	-1.3130E-5	-1.3130E-5	-1.3130E-5	-1.3130E-5	  -19.9000	   23.7627	    1.6961	    0.0000	
 -950.0000	-1.3170E-5	-1.3170E-5	-1.3170E-5	-1.3170E-5	-1.3170E-5	  -19.9000	   23.7627	    1.6961	    0.0000	
 -960.0000	-1.3220E-5	-1.3220E-5	-1.3220E-5	-1.3220E-5	-1.3220E-5	  -19.9000	   23.7627	    1.6961	    0.0000	
 -970.0000	-1.3270E-5	-1.3270E-5	-1.3270E-5	-1.3270E-5	-1.3270E-5	  -19.9000	   23.7627	    1.6961	    0.0000	
 -980.0000	-1.3300E-5	-1.3300E-5	-1.3300E-5	-1.3300E-5	-1.3300E-5	  -19.9000	   23.7627	    1.6961	    0.0000	
 -990.0000	-1.3340E-5	-1.3340E-5	-1.3340E-5	-1.3340E-5	-1.3340E-5	  -19.9000	   23.7627	    1.6961	    0.0000	
-1000.0000	-1.3380E-5	-1.3380E-5	-1.3380E-5	-1.3380E-5	-1.3380E-5	  -19.9000	   23.7627	    1.6961	    0.0000	
