GCD Test
Bias: 5000.000000
CV_34254_041_PSS_HM_XX_DIODEHALF
Date/Time: 4/23/2021 4:15:12 PM
Sensor Name: DIODEHALF
Type: P
Annealing Status: Unirradiated
Environment: RT
Tester: Andrew Kent 

Time Delay per Ramp Step (s): 0.500

CV Time Delay per Measurement (s) :0.500

AC Voltage (V): 0.500

Current Number of measurements per voltage: 1.000

IV Time Delay per Measurement (s) :0.000


BiasVoltage	LCR_Cp_freq1000.0	LCR_Rp_freq1000.0	Temperature	Air_Temp	Humidity	Dewpoint	
   -5.0000	3.355E-11	1.299E+9	   23.0759	   23.3734	   16.2732	   -3.6264	
  -10.0000	2.534E-11	1.931E+9	   23.0759	   23.3775	   16.2846	   -3.6137	
  -15.0000	2.148E-11	2.082E+9	   23.0759	   23.3788	   16.2853	   -3.6122	
  -20.0000	1.908E-11	2.207E+9	   23.0759	   23.3788	   16.2853	   -3.6122	
  -25.0000	1.735E-11	2.303E+9	   23.0759	   23.3707	   16.2682	   -3.6327	
  -30.0000	1.603E-11	2.276E+9	   23.0759	   23.3743	   16.2742	   -3.6249	
  -35.0000	1.485E-11	2.112E+9	   23.0759	   23.3725	   16.2777	   -3.6234	
  -40.0000	1.378E-11	2.186E+9	   23.0759	   23.3711	   16.2777	   -3.6245	
  -45.0000	1.285E-11	2.153E+9	   23.0759	   23.3653	   16.2710	   -3.6347	
  -50.0000	1.205E-11	2.248E+9	   23.0759	   23.3782	   16.2919	   -3.6072	
  -55.0000	1.141E-11	2.337E+9	   23.0759	   23.3749	   16.2770	   -3.6220	
  -60.0000	1.105E-11	2.204E+9	   23.0785	   23.3709	   16.2796	   -3.6231	
  -65.0000	1.076E-11	1.740E+9	   23.0759	   23.3712	   16.2786	   -3.6237	
  -70.0000	1.015E-11	2.607E+8	   23.0785	   23.3714	   16.2720	   -3.6290	
  -75.0000	8.873E-12	5.179E+8	   23.0759	   23.3719	   16.2679	   -3.6319	
  -80.0000	8.667E-12	1.120E+9	   23.0759	   23.3728	   16.2764	   -3.6243	
  -85.0000	8.537E-12	1.193E+9	   23.0759	   23.3750	   16.2818	   -3.6181	
  -90.0000	8.427E-12	1.275E+9	   23.0759	   23.3741	   16.2906	   -3.6115	
  -95.0000	8.327E-12	1.304E+9	   23.0759	   23.3671	   16.2713	   -3.6330	
 -100.0000	8.234E-12	1.365E+9	   23.0759	   23.3728	   16.2739	   -3.6263	
 -105.0000	8.148E-12	1.416E+9	   23.0759	   23.3703	   16.2827	   -3.6210	
 -110.0000	8.069E-12	1.435E+9	   23.0759	   23.3719	   16.2739	   -3.6270	
 -115.0000	7.993E-12	1.506E+9	   23.0759	   23.3775	   16.2758	   -3.6210	
 -120.0000	7.920E-12	1.528E+9	   23.0759	   23.3758	   16.2761	   -3.6221	
 -125.0000	7.858E-12	1.548E+9	   23.0759	   23.3696	   16.2780	   -3.6255	
 -130.0000	7.792E-12	1.610E+9	   23.0759	   23.3779	   16.2748	   -3.6214	
 -135.0000	7.737E-12	1.664E+9	   23.0759	   23.3743	   16.2732	   -3.6256	
 -140.0000	7.680E-12	1.705E+9	   23.0785	   23.3740	   16.2736	   -3.6256	
 -145.0000	7.632E-12	1.739E+9	   23.0759	   23.3783	   16.2758	   -3.6203	
 -150.0000	7.579E-12	1.742E+9	   23.0759	   23.3698	   16.2783	   -3.6251	
 -155.0000	7.533E-12	1.833E+9	   23.0759	   23.3742	   16.2701	   -3.6283	
 -160.0000	7.490E-12	1.938E+9	   23.0785	   23.3742	   16.2736	   -3.6255	
 -165.0000	7.445E-12	1.910E+9	   23.0759	   23.3745	   16.2739	   -3.6249	
 -170.0000	7.407E-12	2.027E+9	   23.0759	   23.3733	   16.2846	   -3.6171	
 -175.0000	7.366E-12	2.003E+9	   23.0759	   23.3688	   16.2789	   -3.6254	
 -180.0000	7.325E-12	2.043E+9	   23.0759	   23.3689	   16.2745	   -3.6290	
 -185.0000	7.292E-12	2.105E+9	   23.0785	   23.3740	   16.2755	   -3.6240	
 -190.0000	7.256E-12	2.137E+9	   23.0785	   23.3765	   16.2812	   -3.6174	
 -195.0000	7.221E-12	2.032E+9	   23.0759	   23.3806	   16.2704	   -3.6229	
 -200.0000	7.186E-12	2.079E+9	   23.0759	   23.3726	   16.2802	   -3.6213	
 -205.0000	7.156E-12	2.190E+9	   23.0785	   23.3726	   16.2878	   -3.6151	
 -210.0000	7.128E-12	2.320E+9	   23.0785	   23.3734	   16.2685	   -3.6302	
 -215.0000	7.096E-12	2.276E+9	   23.0759	   23.3762	   16.2755	   -3.6223	
 -220.0000	7.065E-12	2.185E+9	   23.0785	   23.3699	   16.2830	   -3.6211	
 -225.0000	7.034E-12	2.270E+9	   23.0759	   23.3759	   16.2796	   -3.6191	
 -230.0000	7.010E-12	2.354E+9	   23.0785	   23.3716	   16.2894	   -3.6146	
 -235.0000	6.976E-12	2.273E+9	   23.0785	   23.3716	   16.2894	   -3.6146	
 -240.0000	6.949E-12	2.235E+9	   23.0759	   23.3733	   16.2834	   -3.6182	
 -245.0000	6.929E-12	2.401E+9	   23.0759	   23.3760	   16.2843	   -3.6152	
 -250.0000	6.912E-12	2.392E+9	   23.0759	   23.3771	   16.2717	   -3.6247	
 -255.0000	6.894E-12	2.307E+9	   23.0785	   23.3746	   16.2720	   -3.6264	
 -260.0000	6.881E-12	2.287E+9	   23.0759	   23.3753	   16.2748	   -3.6235	
 -265.0000	6.874E-12	2.238E+9	   23.0759	   23.3797	   16.2770	   -3.6182	
 -270.0000	6.864E-12	2.339E+9	   23.0759	   23.3730	   16.2812	   -3.6202	
 -275.0000	6.858E-12	2.292E+9	   23.0759	   23.3702	   16.2764	   -3.6263	
 -280.0000	6.854E-12	2.372E+9	   23.0785	   23.3736	   16.2824	   -3.6187	
 -285.0000	6.852E-12	2.229E+9	   23.0785	   23.3773	   16.2837	   -3.6146	
 -290.0000	6.849E-12	2.292E+9	   23.0785	   23.3740	   16.2764	   -3.6232	
 -295.0000	6.845E-12	2.366E+9	   23.0785	   23.3747	   16.2701	   -3.6279	
 -300.0000	6.839E-12	2.408E+9	   23.0785	   23.3776	   16.2793	   -3.6180	
 -305.0000	6.837E-12	2.292E+9	   23.0785	   23.3728	   16.2783	   -3.6227	
 -310.0000	6.837E-12	2.341E+9	   23.0785	   23.3721	   16.2853	   -3.6175	
 -315.0000	6.837E-12	2.259E+9	   23.0785	   23.3772	   16.2657	   -3.6295	
 -320.0000	6.834E-12	2.357E+9	   23.0785	   23.3765	   16.2650	   -3.6306	
 -325.0000	6.831E-12	2.368E+9	   23.0785	   23.3785	   16.2770	   -3.6191	
 -330.0000	6.830E-12	2.353E+9	   23.0759	   23.3790	   16.2827	   -3.6140	
 -335.0000	6.831E-12	2.394E+9	   23.0759	   23.3759	   16.2761	   -3.6220	
 -340.0000	6.827E-12	2.421E+9	   23.0785	   23.3772	   16.2707	   -3.6253	
 -345.0000	6.826E-12	2.356E+9	   23.0785	   23.3770	   16.2751	   -3.6219	
 -350.0000	6.826E-12	2.415E+9	   23.0785	   23.3793	   16.2679	   -3.6260	
 -355.0000	6.823E-12	2.310E+9	   23.0785	   23.3793	   16.2679	   -3.6260	
 -360.0000	6.822E-12	2.288E+9	   23.0785	   23.3826	   16.2698	   -3.6218	
 -365.0000	6.824E-12	2.303E+9	   23.0785	   23.3800	   16.2868	   -3.6099	
 -370.0000	6.823E-12	2.394E+9	   23.0785	   23.3763	   16.2881	   -3.6118	
 -375.0000	6.820E-12	2.322E+9	   23.0785	   23.3839	   16.2824	   -3.6104	
 -380.0000	6.822E-12	2.487E+9	   23.0785	   23.3780	   16.2903	   -3.6086	
 -385.0000	6.822E-12	2.283E+9	   23.0785	   23.3725	   16.2849	   -3.6175	
 -390.0000	6.821E-12	2.397E+9	   23.0785	   23.3786	   16.2887	   -3.6095	
 -395.0000	6.814E-12	2.370E+9	   23.0785	   23.3800	   16.2865	   -3.6102	
 -400.0000	6.817E-12	2.383E+9	   23.0759	   23.3845	   16.2913	   -3.6027	
 -410.0000	6.814E-12	2.330E+9	   23.0785	   23.3815	   16.2780	   -3.6159	
 -420.0000	6.815E-12	2.413E+9	   23.0785	   23.3843	   16.2859	   -3.6072	
 -430.0000	6.816E-12	2.362E+9	   23.0785	   23.3804	   16.2846	   -3.6114	
 -440.0000	6.813E-12	2.314E+9	   23.0785	   23.3789	   16.2834	   -3.6136	
 -450.0000	6.813E-12	2.374E+9	   23.0785	   23.3815	   16.2859	   -3.6095	
 -460.0000	6.813E-12	2.572E+9	   23.0785	   23.3794	   16.2824	   -3.6140	
 -470.0000	6.812E-12	2.332E+9	   23.0785	   23.3771	   16.2774	   -3.6200	
 -480.0000	6.812E-12	2.302E+9	   23.0759	   23.3866	   16.2843	   -3.6066	
 -490.0000	6.811E-12	2.435E+9	   23.0759	   23.3866	   16.2843	   -3.6066	
 -500.0000	6.812E-12	2.562E+9	   23.0785	   23.3804	   16.2786	   -3.6163	
 -510.0000	6.806E-12	2.376E+9	   23.0785	   23.3842	   16.2884	   -3.6052	
 -520.0000	6.808E-12	2.344E+9	   23.0759	   23.3783	   16.2894	   -3.6092	
 -530.0000	6.812E-12	2.457E+9	   23.0785	   23.3840	   16.2925	   -3.6020	
 -540.0000	6.810E-12	2.436E+9	   23.0759	   23.3923	   16.2910	   -3.5966	
 -550.0000	6.806E-12	2.402E+9	   23.0785	   23.3883	   16.2802	   -3.6087	
 -560.0000	6.807E-12	2.353E+9	   23.0785	   23.3877	   16.2881	   -3.6027	
 -570.0000	6.808E-12	2.495E+9	   23.0785	   23.3841	   16.2903	   -3.6038	
 -580.0000	6.806E-12	2.532E+9	   23.0785	   23.3844	   16.2846	   -3.6082	
 -590.0000	6.804E-12	2.362E+9	   23.0785	   23.3879	   16.2849	   -3.6051	
 -600.0000	6.809E-12	2.414E+9	   23.0785	   23.3879	   16.2849	   -3.6051	
