GCD Test
Bias: 5000.000000
CV_34254_025_PSS_HM_XX_DIODEHALFPSTOP_Irradiated
Date/Time: 5/14/2021 3:27:07 PM
Sensor Name: DIODEHALFPSTOP
Type: P
Annealing Status: Irradiated, Second Step of Annealing
Environment: 20C
Tester: Andrew Kent

Time Delay per Ramp Step (s): 1.000

CV Time Delay per Measurement (s) :0.500

AC Voltage (V): 0.500

Current Number of measurements per voltage: 4.000

IV Time Delay per Measurement (s) :0.000


BiasVoltage	LCR_Cp_freq1000.0	LCR_Cp_freq10000.0	LCR_Rp_freq1000.0	LCR_Rp_freq10000.0	Temperature	Air_Temp	Humidity	Dewpoint	
  -10.0000	3.139E-12	3.751E-12	7.120E+7	6.546E+7	  -20.0211	   10.5851	    3.6739	  -30.7598	
  -20.0000	3.464E-12	3.745E-12	9.521E+7	7.847E+7	  -20.0109	   10.5367	    3.6765	  -30.7863	
  -30.0000	3.614E-12	3.742E-12	1.163E+8	8.733E+7	  -19.9931	   10.5500	    3.6856	  -30.7510	
  -40.0000	3.681E-12	3.741E-12	1.323E+8	9.401E+7	  -19.9855	   10.5332	    3.6641	  -30.8238	
  -50.0000	3.747E-12	3.740E-12	1.571E+8	1.005E+8	  -19.9779	   10.5532	    3.6594	  -30.8234	
  -60.0000	3.783E-12	3.740E-12	1.777E+8	1.068E+8	  -19.9626	   10.5666	    3.6616	  -30.8078	
  -70.0000	3.792E-12	3.740E-12	1.902E+8	1.108E+8	  -19.9575	   10.5693	    3.6278	  -30.9028	
  -80.0000	3.800E-12	3.740E-12	2.161E+8	1.162E+8	  -19.9473	   10.5383	    3.6230	  -30.9379	
  -90.0000	3.815E-12	3.740E-12	2.369E+8	1.203E+8	  -19.9372	   10.5104	    3.6300	  -30.9373	
 -100.0000	3.823E-12	3.739E-12	2.565E+8	1.242E+8	  -19.9397	   10.5079	    3.6268	  -30.9482	
 -110.0000	3.834E-12	3.740E-12	2.673E+8	1.279E+8	  -19.9397	   10.5457	    3.6113	  -30.9665	
 -120.0000	3.838E-12	3.753E-12	2.944E+8	1.258E+8	  -19.9270	   10.5463	    3.5803	  -31.0558	
 -130.0000	3.843E-12	3.753E-12	3.172E+8	1.287E+8	  -19.9219	   10.5447	    3.5689	  -31.0901	
 -140.0000	3.848E-12	3.753E-12	3.391E+8	1.313E+8	  -19.9168	   10.5104	    3.5234	  -31.2474	
 -150.0000	3.843E-12	3.753E-12	3.324E+8	1.338E+8	  -19.9219	   10.5451	    3.5120	  -31.2570	
 -160.0000	3.843E-12	3.752E-12	3.597E+8	1.355E+8	  -19.9168	   10.5019	    3.4959	  -31.3347	
 -170.0000	3.822E-12	3.751E-12	3.632E+8	1.396E+8	  -19.9219	   10.4887	    3.4624	  -31.4439	
 -180.0000	3.839E-12	3.751E-12	3.971E+8	1.416E+8	  -19.9245	   10.5031	    3.4424	  -31.4938	
 -190.0000	3.830E-12	3.750E-12	4.114E+8	1.431E+8	  -19.9270	   10.5031	    3.4377	  -31.5081	
 -200.0000	3.825E-12	3.750E-12	3.974E+8	1.456E+8	  -19.9321	   10.5036	    3.4203	  -31.5603	
 -210.0000	3.834E-12	3.750E-12	4.351E+8	1.472E+8	  -19.9397	   10.5288	    3.4013	  -31.6005	
 -220.0000	3.829E-12	3.749E-12	4.246E+8	1.488E+8	  -19.9372	   10.5001	    3.3839	  -31.6734	
 -230.0000	3.826E-12	3.749E-12	4.442E+8	1.505E+8	  -19.9448	   10.5333	    3.3956	  -31.6148	
 -240.0000	3.824E-12	3.749E-12	4.435E+8	1.532E+8	  -19.9575	   10.5428	    3.3937	  -31.6140	
 -250.0000	3.820E-12	3.749E-12	4.643E+8	1.547E+8	  -19.9626	   10.5418	    3.3865	  -31.6368	
 -260.0000	3.833E-12	3.748E-12	4.745E+8	1.569E+8	  -19.9652	   10.5474	    3.3713	  -31.6795	
 -270.0000	3.832E-12	3.748E-12	4.945E+8	1.578E+8	  -19.9728	   10.5462	    3.3441	  -31.7641	
 -280.0000	3.831E-12	3.748E-12	5.229E+8	1.597E+8	  -19.9830	   10.5470	    3.3286	  -31.8116	
 -290.0000	3.823E-12	3.747E-12	5.207E+8	1.616E+8	  -19.9880	   10.5470	    3.3245	  -31.8244	
 -300.0000	3.818E-12	3.747E-12	5.051E+8	1.644E+8	  -19.9855	   10.5420	    3.3106	  -31.8711	
 -310.0000	3.815E-12	3.746E-12	5.147E+8	1.652E+8	  -19.9982	   10.4910	    3.3071	  -31.9171	
 -320.0000	3.825E-12	3.747E-12	5.397E+8	1.676E+8	  -19.9982	   10.4965	    3.3027	  -31.9272	
 -330.0000	3.812E-12	3.746E-12	5.338E+8	1.687E+8	  -20.0059	   10.5028	    3.3074	  -31.9080	
 -340.0000	3.828E-12	3.746E-12	5.848E+8	1.707E+8	  -20.0186	   10.4858	    3.3011	  -31.9395	
 -350.0000	3.820E-12	3.745E-12	5.548E+8	1.732E+8	  -20.0287	   10.4705	    3.2973	  -31.9619	
 -360.0000	3.819E-12	3.745E-12	5.984E+8	1.751E+8	  -20.0389	   10.4599	    3.3042	  -31.9474	
 -370.0000	3.818E-12	3.745E-12	5.980E+8	1.757E+8	  -20.0338	   10.4833	    3.3102	  -31.9126	
 -380.0000	3.806E-12	3.745E-12	6.058E+8	1.781E+8	  -20.0287	   10.5256	    3.3264	  -31.8332	
 -390.0000	3.812E-12	3.745E-12	5.974E+8	1.794E+8	  -20.0338	   10.5256	    3.3381	  -31.7969	
 -400.0000	3.814E-12	3.744E-12	5.956E+8	1.820E+8	  -20.0313	   10.5364	    3.3488	  -31.7562	
 -410.0000	3.808E-12	3.744E-12	6.368E+8	1.831E+8	  -20.0364	   10.5229	    3.3510	  -31.7587	
 -420.0000	3.818E-12	3.744E-12	6.587E+8	1.844E+8	  -20.0440	   10.5417	    3.3498	  -31.7496	
 -430.0000	3.803E-12	3.744E-12	6.644E+8	1.852E+8	  -20.0415	   10.4879	    3.3428	  -31.8082	
 -440.0000	3.806E-12	3.744E-12	6.765E+8	1.876E+8	  -20.0440	   10.5152	    3.2982	  -31.9281	
 -450.0000	3.810E-12	3.743E-12	7.120E+8	1.897E+8	  -20.0465	   10.5247	    3.2976	  -31.9236	
 -460.0000	3.810E-12	3.743E-12	7.235E+8	1.927E+8	  -20.0313	   10.5132	    3.2922	  -31.9483	
 -470.0000	3.803E-12	3.743E-12	6.933E+8	1.930E+8	  -20.0313	   10.5151	    3.2707	  -32.0147	
 -480.0000	3.815E-12	3.743E-12	7.539E+8	1.943E+8	  -20.0338	   10.5217	    3.2812	  -31.9773	
 -490.0000	3.805E-12	3.743E-12	7.352E+8	1.965E+8	  -20.0287	   10.4855	    3.2628	  -32.0600	
 -500.0000	3.808E-12	3.743E-12	7.815E+8	1.972E+8	  -20.0237	   10.5029	    3.2486	  -32.0930	
 -510.0000	3.806E-12	3.742E-12	7.896E+8	1.995E+8	  -20.0389	   10.5020	    3.2682	  -32.0316	
 -520.0000	3.803E-12	3.742E-12	8.018E+8	1.997E+8	  -20.0338	   10.4981	    3.2555	  -32.0743	
 -530.0000	3.807E-12	3.742E-12	7.854E+8	2.008E+8	  -20.0237	   10.5046	    3.2922	  -31.9582	
 -540.0000	3.799E-12	3.742E-12	7.778E+8	2.022E+8	  -20.0160	   10.5232	    3.2982	  -31.9226	
 -550.0000	3.803E-12	3.741E-12	8.123E+8	2.042E+8	  -20.0160	   10.5279	    3.2992	  -31.9164	
 -560.0000	3.796E-12	3.742E-12	7.874E+8	2.073E+8	  -20.0084	   10.5179	    3.3238	  -31.8464	
 -570.0000	3.804E-12	3.741E-12	8.083E+8	2.078E+8	  -20.0109	   10.4779	    3.3229	  -31.8769	
 -580.0000	3.798E-12	3.741E-12	8.883E+8	2.098E+8	  -20.0033	   10.4925	    3.3374	  -31.8217	
 -590.0000	3.791E-12	3.741E-12	8.325E+8	2.101E+8	  -19.9982	   10.4966	    3.3340	  -31.8297	
 -600.0000	3.794E-12	3.741E-12	8.368E+8	2.109E+8	  -20.0059	   10.5188	    3.3634	  -31.7235	
 -610.0000	3.798E-12	3.741E-12	9.224E+8	2.124E+8	  -19.9957	   10.4791	    3.3899	  -31.6695	
 -620.0000	3.794E-12	3.740E-12	9.265E+8	2.140E+8	  -19.9855	   10.4791	    3.3877	  -31.6763	
 -630.0000	3.795E-12	3.740E-12	8.828E+8	2.151E+8	  -19.9855	   10.4739	    3.4089	  -31.6153	
 -640.0000	3.793E-12	3.740E-12	8.922E+8	2.161E+8	  -19.9830	   10.5077	    3.4162	  -31.5699	
 -650.0000	3.789E-12	3.740E-12	9.201E+8	2.165E+8	  -19.9906	   10.5032	    3.4279	  -31.5376	
 -660.0000	3.792E-12	3.740E-12	9.057E+8	2.172E+8	  -19.9931	   10.5121	    3.4165	  -31.5659	
 -670.0000	3.790E-12	3.740E-12	9.578E+8	2.195E+8	  -20.0033	   10.4824	    3.4260	  -31.5577	
 -680.0000	3.800E-12	3.740E-12	1.002E+9	2.192E+8	  -20.0033	   10.5045	    3.4307	  -31.5281	
 -690.0000	3.797E-12	3.740E-12	9.946E+8	2.206E+8	  -19.9931	   10.5336	    3.4522	  -31.4432	
 -700.0000	3.795E-12	3.740E-12	9.377E+8	2.204E+8	  -19.9906	   10.4826	    3.4643	  -31.4424	
 -710.0000	3.794E-12	3.739E-12	9.590E+8	2.215E+8	  -19.9931	   10.5089	    3.4592	  -31.4394	
 -720.0000	3.794E-12	3.740E-12	9.727E+8	2.230E+8	  -19.9982	   10.4993	    3.4545	  -31.4602	
 -730.0000	3.796E-12	3.739E-12	1.026E+9	2.230E+8	  -20.0008	   10.4731	    3.4643	  -31.4490	
 -740.0000	3.794E-12	3.739E-12	1.047E+9	2.242E+8	  -20.0008	   10.5106	    3.4934	  -31.3362	
 -750.0000	3.787E-12	3.739E-12	1.057E+9	2.245E+8	  -20.0059	   10.4959	    3.4959	  -31.3389	
 -760.0000	3.794E-12	3.739E-12	1.039E+9	2.255E+8	  -20.0109	   10.4794	    3.5152	  -31.2932	
 -770.0000	3.787E-12	3.739E-12	1.019E+9	2.269E+8	  -20.0059	   10.4650	    3.5120	  -31.3125	
 -780.0000	3.794E-12	3.739E-12	1.111E+9	2.262E+8	  -19.9957	   10.4505	    3.5152	  -31.3132	
 -790.0000	3.787E-12	3.738E-12	1.087E+9	2.277E+8	  -20.0033	   10.4292	    3.5398	  -31.2554	
 -800.0000	3.790E-12	3.738E-12	1.024E+9	2.282E+8	  -20.0059	   10.4157	    3.5503	  -31.2341	
 -810.0000	3.790E-12	3.738E-12	1.024E+9	2.286E+8	  -20.0008	   10.3983	    3.5803	  -31.1586	
 -820.0000	3.788E-12	3.738E-12	1.116E+9	2.294E+8	  -20.0059	   10.4216	    3.5683	  -31.1774	
 -830.0000	3.792E-12	3.738E-12	1.095E+9	2.301E+8	  -20.0033	   10.4340	    3.5886	  -31.1099	
 -840.0000	3.795E-12	3.738E-12	1.086E+9	2.303E+8	  -19.9982	   10.4397	    3.5971	  -31.0812	
 -850.0000	3.790E-12	3.738E-12	1.137E+9	2.311E+8	  -19.9880	   10.4659	    3.5917	  -31.0787	
 -860.0000	3.790E-12	3.738E-12	1.141E+9	2.306E+8	  -19.9855	   10.4859	    3.5923	  -31.0629	
 -870.0000	3.785E-12	3.737E-12	1.085E+9	2.311E+8	  -19.9931	   10.5083	    3.6044	  -31.0126	
 -880.0000	3.786E-12	3.738E-12	1.167E+9	2.308E+8	  -19.9931	   10.4914	    3.5787	  -31.0986	
 -890.0000	3.786E-12	3.738E-12	1.099E+9	2.317E+8	  -19.9982	   10.4966	    3.5689	  -31.1235	
 -900.0000	3.788E-12	3.738E-12	1.132E+9	2.315E+8	  -19.9957	   10.4465	    3.5357	  -31.2554	
 -910.0000	3.791E-12	3.738E-12	1.084E+9	2.307E+8	  -20.0033	   10.4417	    3.5487	  -31.2207	
 -920.0000	3.787E-12	3.737E-12	1.187E+9	2.332E+8	  -20.0008	   10.4312	    3.5493	  -31.2261	
 -930.0000	3.795E-12	3.737E-12	1.163E+9	2.320E+8	  -19.9957	   10.4291	    3.5579	  -31.2027	
 -940.0000	3.794E-12	3.737E-12	1.196E+9	2.342E+8	  -19.9931	   10.4614	    3.5443	  -31.2201	
 -950.0000	3.787E-12	3.738E-12	1.105E+9	2.338E+8	  -19.9830	   10.4650	    3.5484	  -31.2055	
 -960.0000	3.791E-12	3.738E-12	1.216E+9	2.343E+8	  -19.9855	   10.4495	    3.5389	  -31.2441	
 -970.0000	3.792E-12	3.737E-12	1.181E+9	2.332E+8	  -19.9906	   10.4113	    3.5237	  -31.3152	
 -980.0000	3.786E-12	3.737E-12	1.157E+9	2.334E+8	  -19.9982	   10.4113	    3.5098	  -31.3563	
 -990.0000	3.788E-12	3.737E-12	1.217E+9	2.337E+8	  -19.9931	   10.3853	    3.4921	  -31.4268	
-1000.0000	3.786E-12	3.737E-12	1.140E+9	2.342E+8	  -19.9931	   10.3994	    3.4867	  -31.4330	
