GCD Test
Bias: 5000.000000
IV_38695_044_2-S_HM_XX_DIODEQUARTER
Date/Time: 2/9/2022 4:48:00 PM
Sensor Name: DIODEQUARTER
Type: P
Annealing Status: Unirradiated
Environment: 0C
Tester: Andrew Kent

Time Delay per Ramp Step (s): 0.500

CV Time Delay per Measurement (s) :0.500

AC Voltage (V): 0.500

Current Number of measurements per voltage: 1.000

IV Time Delay per Measurement (s) :0.000


BiasVoltage	Total Current_Avg	Total Current_0	Bias Current_Avg	Bias Current_0	Temperature	Air_Temp	Humidity	Dewpoint	
  -10.0000	-2.7200E-10	-2.7200E-10	-9.222708E-12	-9.222708E-12	    0.0102	   14.5388	   27.3412	   -4.0610	
  -20.0000	-9.5100E-10	-9.5100E-10	-9.415821E-12	-9.415821E-12	    0.0333	   14.5450	   27.3438	   -4.0544	
  -30.0000	-1.6780E-9	-1.6780E-9	-1.076399E-11	-1.076399E-11	    0.0409	   14.5408	   27.3251	   -4.0671	
  -40.0000	-2.4560E-9	-2.4560E-9	-1.079944E-11	-1.079944E-11	    0.0435	   14.5452	   27.3390	   -4.0566	
  -50.0000	-3.3730E-9	-3.3730E-9	-1.191781E-11	-1.191781E-11	    0.0461	   14.5522	   27.3302	   -4.0548	
  -60.0000	-4.1870E-9	-4.1870E-9	-1.318388E-11	-1.318388E-11	    0.0384	   14.5569	   27.3472	   -4.0425	
  -70.0000	-5.0170E-9	-5.0170E-9	-1.341978E-11	-1.341978E-11	    0.0384	   14.5569	   27.3472	   -4.0425	
  -80.0000	-5.8220E-9	-5.8220E-9	-1.291662E-11	-1.291662E-11	    0.0230	   14.5694	   27.3517	   -4.0296	
  -90.0000	-6.5040E-9	-6.5040E-9	-1.331344E-11	-1.331344E-11	    0.0077	   14.5694	   27.3368	   -4.0296	
 -100.0000	-7.2050E-9	-7.2050E-9	-1.320874E-11	-1.320874E-11	    0.0077	   14.5544	   27.3368	   -4.0497	
 -110.0000	-7.7080E-9	-7.7080E-9	-1.353203E-11	-1.353203E-11	   -0.0102	   14.5523	   27.3185	   -4.0605	
 -120.0000	-7.9910E-9	-7.9910E-9	-1.360435E-11	-1.360435E-11	   -0.0281	   14.5385	   27.3058	   -4.0784	
 -130.0000	-8.1190E-9	-8.1190E-9	-1.350473E-11	-1.350473E-11	   -0.0409	   14.5385	   27.3188	   -4.0784	
 -140.0000	-8.3900E-9	-8.3900E-9	-1.389077E-11	-1.389077E-11	   -0.0409	   14.5442	   27.3188	   -4.0672	
 -150.0000	-8.4440E-9	-8.4440E-9	-1.401727E-11	-1.401727E-11	   -0.0486	   14.5423	   27.2979	   -4.0790	
 -160.0000	-8.5110E-9	-8.5110E-9	-1.388669E-11	-1.388669E-11	   -0.0435	   14.5423	   27.2789	   -4.0790	
 -170.0000	-8.7830E-9	-8.7830E-9	-1.426131E-11	-1.426131E-11	   -0.0435	   14.5423	   27.2789	   -4.0882	
 -180.0000	-9.0820E-9	-9.0820E-9	-1.428535E-11	-1.428535E-11	   -0.0384	   14.5392	   27.2764	   -4.0922	
 -190.0000	-9.4700E-9	-9.4700E-9	-1.453347E-11	-1.453347E-11	   -0.0281	   14.5353	   27.2577	   -4.1046	
 -200.0000	-9.9220E-9	-9.9220E-9	-1.500119E-11	-1.500119E-11	   -0.0051	   14.5353	   27.2404	   -4.1046	
 -210.0000	-1.0460E-8	-1.0460E-8	-1.484841E-11	-1.484841E-11	   -0.0051	   14.5231	   27.2404	   -4.1235	
 -220.0000	-1.1270E-8	-1.1270E-8	-1.497879E-11	-1.497879E-11	    0.0102	   14.5274	   27.2372	   -4.1214	
 -230.0000	-1.2240E-8	-1.2240E-8	-1.511079E-11	-1.511079E-11	    0.0307	   14.5274	   27.2141	   -4.1214	
 -240.0000	-1.3230E-8	-1.3230E-8	-1.571500E-11	-1.571500E-11	    0.0307	   14.5244	   27.2141	   -4.1352	
 -250.0000	-1.5010E-8	-1.5010E-8	-1.597840E-11	-1.597840E-11	    0.0486	   14.5395	   27.2109	   -4.1238	
 -260.0000	-1.6310E-8	-1.6310E-8	-1.547991E-11	-1.547991E-11	    0.0614	   14.5395	   27.2109	   -4.1238	
 -270.0000	-1.8310E-8	-1.8310E-8	-1.565001E-11	-1.565001E-11	    0.0614	   14.4917	   27.1809	   -4.1795	
 -280.0000	-2.0310E-8	-2.0310E-8	-1.624179E-11	-1.624179E-11	    0.0512	   14.4917	   27.1727	   -4.1835	
 -290.0000	-2.1240E-8	-2.1240E-8	-1.628539E-11	-1.628539E-11	    0.0384	   14.4917	   27.1727	   -4.1835	
 -300.0000	-2.2310E-8	-2.2310E-8	-1.616337E-11	-1.616337E-11	    0.0384	   14.4971	   27.1622	   -4.1840	
 -310.0000	-2.3180E-8	-2.3180E-8	-1.613383E-11	-1.613383E-11	    0.0256	   14.4971	   27.1490	   -4.1905	
 -320.0000	-2.3470E-8	-2.3470E-8	-1.675230E-11	-1.675230E-11	    0.0051	   14.4971	   27.1490	   -4.1905	
 -330.0000	-2.4110E-8	-2.4110E-8	-1.610083E-11	-1.610083E-11	    0.0051	   14.4984	   27.1626	   -4.1828	
 -340.0000	-2.3900E-8	-2.3900E-8	-1.629252E-11	-1.629252E-11	   -0.0154	   14.4984	   27.1496	   -4.1891	
 -350.0000	-2.3590E-8	-2.3590E-8	-1.694643E-11	-1.694643E-11	   -0.0333	   14.4984	   27.1474	   -4.1891	
 -360.0000	-2.2700E-8	-2.2700E-8	-1.655592E-11	-1.655592E-11	   -0.0333	   14.4940	   27.1474	   -4.1939	
 -370.0000	-2.1920E-8	-2.1920E-8	-1.645874E-11	-1.645874E-11	   -0.0512	   14.4690	   27.1360	   -4.2209	
 -380.0000	-2.1480E-8	-2.1480E-8	-1.752416E-11	-1.752416E-11	   -0.0588	   14.4690	   27.1414	   -4.2209	
 -390.0000	-2.0420E-8	-2.0420E-8	-1.687838E-11	-1.687838E-11	   -0.0588	   14.4826	   27.1414	   -4.2066	
 -400.0000	-1.9890E-8	-1.9890E-8	-1.675393E-11	-1.675393E-11	   -0.0614	   14.4776	   27.1414	   -4.2109	
 -420.0000	-2.0110E-8	-2.0110E-8	-1.692239E-11	-1.692239E-11	   -0.0563	   14.4776	   27.1300	   -4.2109	
 -440.0000	-2.0610E-8	-2.0610E-8	-1.678162E-11	-1.678162E-11	   -0.0563	   14.4750	   27.1300	   -4.2187	
 -460.0000	-2.0980E-8	-2.0980E-8	-1.780162E-11	-1.780162E-11	   -0.0461	   14.4680	   27.1433	   -4.2182	
 -480.0000	-2.1740E-8	-2.1740E-8	-1.759138E-11	-1.759138E-11	   -0.0230	   14.4680	   27.1433	   -4.2182	
 -500.0000	-2.2780E-8	-2.2780E-8	-1.810962E-11	-1.810962E-11	   -0.0230	   14.4655	   27.1458	   -4.2191	
 -520.0000	-2.4590E-8	-2.4590E-8	-1.850482E-11	-1.850482E-11	   -0.0051	   14.4655	   27.1373	   -4.2233	
 -540.0000	-2.6390E-8	-2.6390E-8	-1.876395E-11	-1.876395E-11	    0.0205	   14.4655	   27.1221	   -4.2233	
 -560.0000	-2.8960E-8	-2.8960E-8	-1.872015E-11	-1.872015E-11	    0.0205	   14.4575	   27.1221	   -4.2376	
 -580.0000	-3.2060E-8	-3.2060E-8	-1.873889E-11	-1.873889E-11	    0.0409	   14.4425	   27.1208	   -4.2511	
 -600.0000	-3.5480E-8	-3.5480E-8	-1.891734E-11	-1.891734E-11	    0.0563	   14.4425	   27.1059	   -4.2511	
 -620.0000	-3.9160E-8	-3.9160E-8	-1.876253E-11	-1.876253E-11	    0.0563	   14.4383	   27.1059	   -4.2619	
 -640.0000	-4.3530E-8	-4.3530E-8	-1.885868E-11	-1.885868E-11	    0.0640	   14.4259	   27.1107	   -4.2703	
 -660.0000	-4.7620E-8	-4.7620E-8	-1.929788E-11	-1.929788E-11	    0.0640	   14.4259	   27.1015	   -4.2703	
 -680.0000	-5.2230E-8	-5.2230E-8	-1.887946E-11	-1.887946E-11	    0.0640	   14.4448	   27.1015	   -4.2586	
 -700.0000	-5.6050E-8	-5.6050E-8	-1.956555E-11	-1.956555E-11	    0.0537	   14.4461	   27.1015	   -4.2574	
 -720.0000	-5.8980E-8	-5.8980E-8	-1.953703E-11	-1.953703E-11	    0.0384	   14.4461	   27.0829	   -4.2574	
 -740.0000	-6.1540E-8	-6.1540E-8	-1.896989E-11	-1.896989E-11	    0.0384	   14.4475	   27.0829	   -4.2654	
 -760.0000	-6.3450E-8	-6.3450E-8	-1.974543E-11	-1.974543E-11	    0.0179	   14.4575	   27.0933	   -4.2517	
 -780.0000	-6.4500E-8	-6.4500E-8	-1.902367E-11	-1.902367E-11	   -0.0077	   14.4575	   27.0933	   -4.2517	
 -800.0000	-6.4170E-8	-6.4170E-8	-1.939728E-11	-1.939728E-11	   -0.0077	   14.4443	   27.0848	   -4.2672	
 -820.0000	-6.3440E-8	-6.3440E-8	-2.000271E-11	-2.000271E-11	   -0.0281	   14.4443	   27.0623	   -4.2782	
 -840.0000	-6.2190E-8	-6.2190E-8	-2.032906E-11	-2.032906E-11	   -0.0281	   14.4443	   27.0705	   -4.2782	
 -860.0000	-6.1420E-8	-6.1420E-8	-2.009214E-11	-2.009214E-11	   -0.0281	   14.4436	   27.0705	   -4.2748	
 -880.0000	-6.1610E-8	-6.1610E-8	-2.032152E-11	-2.032152E-11	   -0.0486	   14.4134	   27.0626	   -4.3046	
 -900.0000	-6.0010E-8	-6.0010E-8	-2.112862E-11	-2.112862E-11	   -0.0563	   14.4134	   27.0702	   -4.3046	
 -920.0000	-5.8220E-8	-5.8220E-8	-2.083670E-11	-2.083670E-11	   -0.0563	   14.4142	   27.0702	   -4.3002	
 -940.0000	-5.6360E-8	-5.6360E-8	-2.158616E-11	-2.158616E-11	   -0.0588	   14.4051	   27.0756	   -4.3053	
 -960.0000	-5.5390E-8	-5.5390E-8	-2.194958E-11	-2.194958E-11	   -0.0537	   14.4051	   27.0886	   -4.3053	
 -980.0000	-5.5070E-8	-5.5070E-8	-2.227960E-11	-2.227960E-11	   -0.0537	   14.4060	   27.0886	   -4.2982	
-1000.0000	-5.5000E-8	-5.5000E-8	-2.296264E-11	-2.296264E-11	   -0.0409	   14.4084	   27.1018	   -4.2896	
