GCD Test
Bias: 5000.000000
CV_34343_036_PSS_HM_XX_DIODEHALF_Irradiated
Date/Time: 9/30/2021 5:34:02 PM
Sensor Name: 34343_036_DIODEHALF
Type: P
Annealing Status: Irradiated and Annealed at 60C for 80 min
Environment: -20C
Tester: Andrew Kent

Time Delay per Ramp Step (s): 1.000

CV Time Delay per Measurement (s) :0.500

AC Voltage (V): 0.500

Current Number of measurements per voltage: 4.000

IV Time Delay per Measurement (s) :0.000


BiasVoltage	LCR_Cp_freq1000.0	LCR_Cp_freq10000.0	LCR_Rp_freq1000.0	LCR_Rp_freq10000.0	Temperature	Air_Temp	Humidity	Dewpoint	
  -10.0000	1.206E-11	1.384E-12	7.407E+6	4.498E+6	  -20.0923	   10.2282	    3.0541	  -32.9151	
  -20.0000	1.118E-11	1.433E-12	1.001E+7	5.216E+6	  -20.0720	   10.2238	    3.0541	  -32.9182	
  -30.0000	1.011E-11	1.492E-12	1.225E+7	5.779E+6	  -20.0135	   10.2254	    3.0218	  -33.0256	
  -40.0000	9.167E-12	1.552E-12	1.456E+7	6.243E+6	  -19.9957	   10.2575	    3.0123	  -33.0358	
  -50.0000	8.419E-12	1.588E-12	1.708E+7	6.592E+6	  -19.9677	   10.2032	    3.0051	  -33.0975	
  -60.0000	7.930E-12	1.613E-12	1.958E+7	6.959E+6	  -19.9143	   10.1557	    2.9700	  -33.2498	
  -70.0000	7.499E-12	1.630E-12	2.202E+7	7.293E+6	  -19.8965	   10.0846	    2.9475	  -33.3756	
  -80.0000	7.163E-12	1.647E-12	2.426E+7	7.585E+6	  -19.8634	   10.1058	    2.9364	  -33.3994	
  -90.0000	6.891E-12	1.664E-12	2.632E+7	7.852E+6	  -19.8507	    9.9770	    2.9257	  -33.5245	
 -100.0000	6.599E-12	1.675E-12	2.830E+7	8.121E+6	  -19.8380	   10.0202	    2.9045	  -33.5689	
 -110.0000	6.386E-12	1.690E-12	3.017E+7	8.304E+6	  -19.8278	   10.0795	    2.8786	  -33.6197	
 -120.0000	6.226E-12	1.714E-12	3.216E+7	8.486E+6	  -19.8278	   10.0899	    2.8694	  -33.6450	
 -130.0000	6.061E-12	1.721E-12	3.389E+7	8.702E+6	  -19.8125	   10.0899	    2.8684	  -33.6484	
 -140.0000	5.916E-12	1.729E-12	3.557E+7	8.875E+6	  -19.8024	   10.0896	    2.8491	  -33.7171	
 -150.0000	5.764E-12	1.734E-12	3.723E+7	9.089E+6	  -19.7922	   10.1320	    2.8267	  -33.7685	
 -160.0000	5.630E-12	1.743E-12	3.885E+7	9.223E+6	  -19.7947	   10.0905	    2.8235	  -33.8080	
 -170.0000	5.520E-12	1.746E-12	4.031E+7	9.436E+6	  -19.7871	   10.1244	    2.8077	  -33.8420	
 -180.0000	5.401E-12	1.752E-12	4.190E+7	9.567E+6	  -19.7769	   10.0287	    2.7897	  -33.9721	
 -190.0000	5.306E-12	1.754E-12	4.337E+7	9.772E+6	  -19.7845	   10.0368	    2.7802	  -34.0010	
 -200.0000	5.195E-12	1.759E-12	4.502E+7	9.926E+6	  -19.7998	   10.0220	    2.7783	  -34.0180	
 -210.0000	5.096E-12	1.760E-12	4.658E+7	1.012E+7	  -19.7947	   10.0340	    2.7815	  -33.9983	
 -220.0000	4.997E-12	1.764E-12	4.823E+7	1.029E+7	  -19.8074	   10.0435	    2.7717	  -34.0276	
 -230.0000	4.916E-12	1.767E-12	4.978E+7	1.048E+7	  -19.8227	    9.9987	    2.7713	  -34.0591	
 -240.0000	4.828E-12	1.769E-12	5.152E+7	1.068E+7	  -19.8278	    9.9815	    2.7821	  -34.0316	
 -250.0000	4.724E-12	1.768E-12	5.341E+7	1.092E+7	  -19.8405	    9.9509	    2.7837	  -34.0466	
 -260.0000	4.647E-12	1.774E-12	5.528E+7	1.109E+7	  -19.8380	    9.9561	    2.7853	  -34.0373	
 -270.0000	4.551E-12	1.776E-12	5.734E+7	1.130E+7	  -19.8736	    9.9580	    2.7891	  -34.0223	
 -280.0000	4.480E-12	1.780E-12	5.937E+7	1.150E+7	  -19.8812	   10.0067	    2.7818	  -34.0157	
 -290.0000	4.392E-12	1.781E-12	6.155E+7	1.171E+7	  -19.8914	   10.0280	    2.7777	  -34.0162	
 -300.0000	4.309E-12	1.783E-12	6.390E+7	1.193E+7	  -19.9016	    9.9754	    2.7691	  -34.0829	
 -310.0000	4.221E-12	1.785E-12	6.643E+7	1.217E+7	  -19.9270	   10.0058	    2.7577	  -34.1040	
 -320.0000	4.148E-12	1.788E-12	6.890E+7	1.239E+7	  -19.9346	   10.0237	    2.7505	  -34.1186	
 -330.0000	4.077E-12	1.795E-12	7.144E+7	1.253E+7	  -19.9473	    9.9883	    2.7489	  -34.1483	
 -340.0000	4.010E-12	1.800E-12	7.407E+7	1.274E+7	  -19.9601	    9.9865	    2.7495	  -34.1473	
 -350.0000	3.929E-12	1.800E-12	7.700E+7	1.294E+7	  -19.9652	    9.9413	    2.7628	  -34.1291	
 -360.0000	3.861E-12	1.804E-12	8.006E+7	1.316E+7	  -19.9855	    9.9413	    2.7631	  -34.1280	
 -370.0000	3.797E-12	1.803E-12	8.292E+7	1.338E+7	  -20.0059	    9.9357	    2.7619	  -34.1364	
 -380.0000	3.721E-12	1.810E-12	8.626E+7	1.354E+7	  -20.0135	    9.9526	    2.7568	  -34.1435	
 -390.0000	3.662E-12	1.812E-12	8.948E+7	1.371E+7	  -20.0287	    9.9726	    2.7590	  -34.1219	
 -400.0000	3.605E-12	1.814E-12	9.294E+7	1.392E+7	  -20.0313	   10.0378	    2.7293	  -34.1872	
 -410.0000	3.549E-12	1.820E-12	9.639E+7	1.410E+7	  -20.0491	   10.0429	    2.7233	  -34.2060	
 -420.0000	3.493E-12	1.823E-12	1.003E+8	1.428E+7	  -20.0593	    9.8483	    2.7271	  -34.3235	
 -430.0000	3.438E-12	1.825E-12	1.043E+8	1.442E+7	  -20.0796	    9.8307	    2.7239	  -34.3471	
 -440.0000	3.394E-12	1.826E-12	1.082E+8	1.458E+7	  -20.0822	    9.8929	    2.7119	  -34.3496	
 -450.0000	3.341E-12	1.827E-12	1.125E+8	1.473E+7	  -20.0898	    9.9200	    2.7147	  -34.3208	
 -460.0000	3.302E-12	1.830E-12	1.170E+8	1.485E+7	  -20.0898	    9.9346	    2.7068	  -34.3404	
 -470.0000	3.260E-12	1.831E-12	1.214E+8	1.498E+7	  -20.0847	    9.8711	    2.6983	  -34.4150	
 -480.0000	3.220E-12	1.832E-12	1.261E+8	1.511E+7	  -20.0872	    9.8945	    2.6730	  -34.4941	
 -490.0000	3.185E-12	1.831E-12	1.316E+8	1.525E+7	  -20.0796	    9.8818	    2.6818	  -34.4695	
 -500.0000	3.152E-12	1.835E-12	1.362E+8	1.531E+7	  -20.0822	    9.9428	    2.6831	  -34.4461	
 -510.0000	3.132E-12	1.836E-12	1.403E+8	1.540E+7	  -20.0720	    9.8568	    2.6850	  -34.4745	
 -520.0000	3.099E-12	1.836E-12	1.450E+8	1.550E+7	  -20.0771	    9.8402	    2.6828	  -34.4939	
 -530.0000	3.072E-12	1.837E-12	1.507E+8	1.559E+7	  -20.0847	    9.8465	    2.6822	  -34.4921	
 -540.0000	3.053E-12	1.835E-12	1.558E+8	1.569E+7	  -20.0745	    9.8579	    2.6670	  -34.5415	
 -550.0000	3.028E-12	1.837E-12	1.611E+8	1.576E+7	  -20.0720	    9.8349	    2.6717	  -34.5391	
 -560.0000	3.013E-12	1.839E-12	1.657E+8	1.583E+7	  -20.0694	    9.7816	    2.6325	  -34.7238	
 -570.0000	2.997E-12	1.838E-12	1.714E+8	1.590E+7	  -20.0745	    9.9171	    2.6395	  -34.6059	
 -580.0000	2.981E-12	1.841E-12	1.750E+8	1.595E+7	  -20.0771	    9.8854	    2.6426	  -34.6152	
 -590.0000	2.968E-12	1.844E-12	1.811E+8	1.598E+7	  -20.0771	    9.8578	    2.6173	  -34.7306	
 -600.0000	2.958E-12	1.843E-12	1.857E+8	1.604E+7	  -20.0644	    9.8003	    2.5882	  -34.8815	
 -610.0000	2.946E-12	1.846E-12	1.911E+8	1.607E+7	  -20.0618	    9.8214	    2.6003	  -34.8208	
 -620.0000	2.938E-12	1.845E-12	1.957E+8	1.613E+7	  -20.0644	    9.8436	    2.5904	  -34.8438	
 -630.0000	2.926E-12	1.846E-12	1.994E+8	1.617E+7	  -20.0593	    9.8871	    2.5987	  -34.7827	
 -640.0000	2.922E-12	1.847E-12	2.054E+8	1.621E+7	  -20.0338	    9.8244	    2.5319	  -35.0856	
 -650.0000	2.910E-12	1.847E-12	2.084E+8	1.624E+7	  -20.0313	    9.8378	    2.5332	  -35.0716	
 -660.0000	2.904E-12	1.848E-12	2.130E+8	1.626E+7	  -20.0237	    9.9096	    2.5253	  -35.0547	
 -670.0000	2.900E-12	1.849E-12	2.174E+8	1.627E+7	  -20.0287	    9.8141	    2.4845	  -35.2817	
 -680.0000	2.895E-12	1.848E-12	2.203E+8	1.632E+7	  -20.0211	    9.7378	    2.4896	  -35.3125	
 -690.0000	2.887E-12	1.846E-12	2.261E+8	1.635E+7	  -20.0211	    9.7808	    2.4719	  -35.3550	
 -700.0000	2.880E-12	1.849E-12	2.300E+8	1.635E+7	  -20.0135	    9.7254	    2.4605	  -35.4382	
 -710.0000	2.878E-12	1.849E-12	2.341E+8	1.637E+7	  -19.9957	    9.7518	    2.4557	  -35.4398	
 -720.0000	2.871E-12	1.848E-12	2.368E+8	1.640E+7	  -19.9880	    9.7770	    2.4323	  -35.5183	
 -730.0000	2.871E-12	1.851E-12	2.399E+8	1.640E+7	  -19.9880	    9.7427	    2.4399	  -35.5102	
 -740.0000	2.868E-12	1.853E-12	2.440E+8	1.640E+7	  -19.9652	    9.7191	    2.4472	  -35.4963	
 -750.0000	2.866E-12	1.854E-12	2.456E+8	1.649E+7	  -19.9601	    9.7540	    2.4481	  -35.4692	
 -760.0000	2.863E-12	1.857E-12	2.506E+8	1.649E+7	  -19.9702	    9.7138	    2.4462	  -35.5089	
 -770.0000	2.861E-12	1.858E-12	2.520E+8	1.651E+7	  -19.9499	    9.7891	    2.4500	  -35.4379	
 -780.0000	2.858E-12	1.856E-12	2.550E+8	1.652E+7	  -19.9473	    9.7122	    2.4339	  -35.5552	
 -790.0000	2.855E-12	1.855E-12	2.578E+8	1.654E+7	  -19.9626	    9.7402	    2.4393	  -35.5145	
 -800.0000	2.853E-12	1.853E-12	2.585E+8	1.654E+7	  -19.9423	    9.6663	    2.4491	  -35.5240	
 -810.0000	2.854E-12	1.855E-12	2.623E+8	1.652E+7	  -19.9372	    9.6782	    2.4545	  -35.4942	
 -820.0000	2.850E-12	1.852E-12	2.645E+8	1.654E+7	  -19.9423	    9.6962	    2.4488	  -35.5053	
 -830.0000	2.850E-12	1.854E-12	2.670E+8	1.655E+7	  -19.9270	    9.7605	    2.4298	  -35.5397	
 -840.0000	2.851E-12	1.855E-12	2.697E+8	1.654E+7	  -19.9346	    9.7527	    2.4298	  -35.5450	
 -850.0000	2.847E-12	1.853E-12	2.713E+8	1.654E+7	  -19.9473	    9.7527	    2.4260	  -35.5606	
 -860.0000	2.848E-12	1.854E-12	2.731E+8	1.653E+7	  -19.9448	    9.7362	    2.4203	  -35.5950	
 -870.0000	2.848E-12	1.853E-12	2.742E+8	1.654E+7	  -19.9473	    9.7715	    2.4146	  -35.5949	
 -880.0000	2.851E-12	1.853E-12	2.766E+8	1.654E+7	  -19.9448	    9.7310	    2.4190	  -35.6037	
 -890.0000	2.841E-12	1.857E-12	2.778E+8	1.651E+7	  -19.9473	    9.7378	    2.4051	  -35.6566	
 -900.0000	2.845E-12	1.857E-12	2.789E+8	1.651E+7	  -19.9626	    9.7011	    2.4054	  -35.6798	
 -910.0000	2.846E-12	1.858E-12	2.794E+8	1.651E+7	  -19.9575	    9.7499	    2.4175	  -35.5975	
 -920.0000	2.842E-12	1.856E-12	2.813E+8	1.651E+7	  -19.9652	    9.7392	    2.4269	  -35.5657	
 -930.0000	2.848E-12	1.856E-12	2.813E+8	1.652E+7	  -19.9804	    9.7518	    2.4330	  -35.5326	
 -940.0000	2.845E-12	1.856E-12	2.855E+8	1.652E+7	  -19.9830	    9.6590	    2.4216	  -35.6414	
 -950.0000	2.841E-12	1.855E-12	2.838E+8	1.652E+7	  -19.9830	    9.5998	    2.4225	  -35.6771	
 -960.0000	2.845E-12	1.857E-12	2.843E+8	1.651E+7	  -19.9880	    9.6626	    2.4276	  -35.6143	
 -970.0000	2.841E-12	1.855E-12	2.847E+8	1.653E+7	  -19.9957	    9.6214	    2.4241	  -35.6561	
 -980.0000	2.844E-12	1.856E-12	2.881E+8	1.649E+7	  -20.0008	    9.6214	    2.4228	  -35.6613	
 -990.0000	2.843E-12	1.858E-12	2.827E+8	1.647E+7	  -20.0135	    9.5766	    2.4298	  -35.6628	
-1000.0000	2.846E-12	1.858E-12	2.846E+8	1.645E+7	  -20.0059	    9.6421	    2.4225	  -35.6488	
