GCD Test
Bias: 5000.000000
CV_34341_012_PSS_HM_XX_DIODEQUARTER_Irradiated
Date/Time: 9/7/2021 4:15:10 PM
Sensor Name: DIODEQUARTER
Type: P
Annealing Status: Irradiated and Annealed at 60C for 80 min
Environment: -20C
Tester: Andrew Kent

Time Delay per Ramp Step (s): 1.000

CV Time Delay per Measurement (s) :0.500

AC Voltage (V): 0.500

Current Number of measurements per voltage: 4.000

IV Time Delay per Measurement (s) :0.000


BiasVoltage	LCR_Cp_freq1000.0	LCR_Cp_freq10000.0	LCR_Rp_freq1000.0	LCR_Rp_freq10000.0	Temperature	Air_Temp	Humidity	Dewpoint	
  -10.0000	8.288E-11	1.708E-11	1.884E+6	9.052E+5	  -18.8814	    8.1187	    5.0955	  -29.0650	
  -20.0000	8.206E-11	1.707E-11	1.950E+6	9.181E+5	  -19.0620	    8.1530	    5.0825	  -29.0673	
  -30.0000	8.109E-11	1.706E-11	1.986E+6	9.395E+5	  -19.1358	    8.1271	    5.0784	  -29.0946	
  -40.0000	7.996E-11	1.706E-11	2.016E+6	9.537E+5	  -19.2096	    8.1152	    5.0746	  -29.1111	
  -50.0000	7.931E-11	1.707E-11	2.040E+6	9.599E+5	  -19.3750	    8.1207	    5.0639	  -29.1296	
  -60.0000	7.867E-11	1.706E-11	2.058E+6	9.685E+5	  -19.4411	    8.1237	    5.0614	  -29.1327	
  -70.0000	7.848E-11	1.706E-11	2.067E+6	9.742E+5	  -19.5149	    8.1351	    5.0449	  -29.1590	
  -80.0000	7.746E-11	1.705E-11	2.083E+6	9.860E+5	  -19.6726	    8.1557	    5.0326	  -29.1702	
  -90.0000	7.693E-11	1.705E-11	2.094E+6	9.897E+5	  -19.7311	    8.1757	    5.0202	  -29.1817	
 -100.0000	7.656E-11	1.705E-11	2.106E+6	9.985E+5	  -19.8074	    8.1800	    5.0164	  -29.1867	
 -110.0000	7.567E-11	1.705E-11	2.116E+6	1.008E+6	  -19.9270	    8.1862	    5.0028	  -29.2109	
 -120.0000	7.489E-11	1.706E-11	2.129E+6	1.018E+6	  -20.0008	    8.1822	    5.0009	  -29.2179	
 -130.0000	7.420E-11	1.705E-11	2.137E+6	1.028E+6	  -20.0745	    8.1751	    4.9883	  -29.2498	
 -140.0000	7.324E-11	1.704E-11	2.149E+6	1.041E+6	  -20.2195	    8.1742	    4.9709	  -29.2874	
 -150.0000	7.313E-11	1.705E-11	2.155E+6	1.041E+6	  -20.2729	    8.2264	    4.9655	  -29.2613	
 -160.0000	7.279E-11	1.705E-11	2.161E+6	1.043E+6	  -20.3314	    8.1689	    4.9456	  -29.3453	
 -170.0000	7.215E-11	1.705E-11	2.169E+6	1.055E+6	  -20.3899	    8.2080	    4.9500	  -29.3077	
 -180.0000	7.158E-11	1.705E-11	2.177E+6	1.062E+6	  -20.5094	    8.2350	    4.9393	  -29.3112	
 -190.0000	7.161E-11	1.704E-11	2.179E+6	1.065E+6	  -20.5374	    8.1895	    4.9175	  -29.3908	
 -200.0000	7.079E-11	1.704E-11	2.191E+6	1.077E+6	  -20.5857	    8.1687	    4.9213	  -29.3976	
 -210.0000	7.020E-11	1.704E-11	2.202E+6	1.081E+6	  -20.6570	    8.1672	    4.9010	  -29.4423	
 -220.0000	7.008E-11	1.704E-11	2.204E+6	1.085E+6	  -20.6900	    8.1672	    4.9016	  -29.4410	
 -230.0000	6.963E-11	1.704E-11	2.214E+6	1.094E+6	  -20.7434	    8.1687	    4.9070	  -29.4282	
 -240.0000	6.967E-11	1.705E-11	2.210E+6	1.088E+6	  -20.7409	    8.1628	    4.8997	  -29.4482	
 -250.0000	6.941E-11	1.705E-11	2.217E+6	1.093E+6	  -20.7561	    8.1871	    4.8792	  -29.4752	
 -260.0000	6.896E-11	1.704E-11	2.222E+6	1.104E+6	  -20.7612	    8.1729	    4.8846	  -29.4737	
 -270.0000	6.845E-11	1.704E-11	2.233E+6	1.107E+6	  -20.7536	    8.1076	    4.8719	  -29.5480	
 -280.0000	6.806E-11	1.704E-11	2.236E+6	1.115E+6	  -20.7307	    8.1441	    4.8729	  -29.5198	
 -290.0000	6.809E-11	1.704E-11	2.241E+6	1.111E+6	  -20.7129	    8.1943	    4.8454	  -29.5435	
 -300.0000	6.792E-11	1.704E-11	2.240E+6	1.116E+6	  -20.6976	    8.1631	    4.8359	  -29.5866	
 -310.0000	6.742E-11	1.704E-11	2.248E+6	1.122E+6	  -20.6620	    8.1763	    4.8457	  -29.5558	
 -320.0000	6.713E-11	1.704E-11	2.253E+6	1.126E+6	  -20.6341	    8.1519	    4.8327	  -29.6016	
 -330.0000	6.764E-11	1.705E-11	2.249E+6	1.115E+6	  -20.5934	    8.1063	    4.8308	  -29.6384	
 -340.0000	6.773E-11	1.704E-11	2.250E+6	1.117E+6	  -20.5094	    8.1119	    4.8229	  -29.6517	
 -350.0000	6.797E-11	1.705E-11	2.245E+6	1.112E+6	  -20.4611	    8.1524	    4.8033	  -29.6656	
 -360.0000	6.795E-11	1.705E-11	2.244E+6	1.112E+6	  -20.4332	    8.1646	    4.8014	  -29.6611	
 -370.0000	6.784E-11	1.705E-11	2.251E+6	1.113E+6	  -20.3569	    8.1292	    4.7875	  -29.7170	
 -380.0000	6.808E-11	1.705E-11	2.247E+6	1.113E+6	  -20.2907	    8.1292	    4.7884	  -29.7149	
 -390.0000	6.780E-11	1.705E-11	2.253E+6	1.115E+6	  -20.2195	    8.0842	    4.7634	  -29.8024	
 -400.0000	6.786E-11	1.705E-11	2.251E+6	1.109E+6	  -20.1763	    8.1276	    4.7631	  -29.7720	
 -410.0000	6.863E-11	1.705E-11	2.242E+6	1.109E+6	  -20.0872	    8.1559	    4.7559	  -29.7678	
 -420.0000	6.817E-11	1.705E-11	2.249E+6	1.109E+6	  -20.0516	    8.1730	    4.7486	  -29.7717	
 -430.0000	6.809E-11	1.706E-11	2.247E+6	1.105E+6	  -20.0008	    8.0906	    4.7394	  -29.8510	
 -440.0000	6.870E-11	1.705E-11	2.242E+6	1.105E+6	  -19.9473	    8.1225	    4.7290	  -29.8514	
 -450.0000	6.842E-11	1.705E-11	2.245E+6	1.109E+6	  -19.8965	    8.0861	    4.7242	  -29.8881	
 -460.0000	6.848E-11	1.706E-11	2.246E+6	1.102E+6	  -19.8354	    8.1090	    4.7106	  -29.9020	
 -470.0000	6.917E-11	1.706E-11	2.235E+6	1.097E+6	  -19.8100	    8.0970	    4.6907	  -29.9552	
 -480.0000	6.920E-11	1.706E-11	2.238E+6	1.098E+6	  -19.7769	    8.1461	    4.6958	  -29.9087	
 -490.0000	6.936E-11	1.707E-11	2.236E+6	1.094E+6	  -19.7438	    8.1201	    4.6923	  -29.9351	
 -500.0000	6.944E-11	1.707E-11	2.235E+6	1.087E+6	  -19.7082	    8.1627	    4.6806	  -29.9309	
 -510.0000	7.031E-11	1.707E-11	2.225E+6	1.082E+6	  -19.6879	    8.1627	    4.6917	  -29.9061	
 -520.0000	6.999E-11	1.707E-11	2.228E+6	1.085E+6	  -19.6650	    8.1694	    4.6790	  -29.9297	
 -530.0000	6.989E-11	1.707E-11	2.230E+6	1.087E+6	  -19.6523	    8.1971	    4.6739	  -29.9213	
 -540.0000	7.031E-11	1.707E-11	2.225E+6	1.084E+6	  -19.6446	    8.2043	    4.6679	  -29.9296	
 -550.0000	6.975E-11	1.707E-11	2.232E+6	1.086E+6	  -19.6574	    8.2266	    4.6638	  -29.9230	
 -560.0000	7.030E-11	1.707E-11	2.225E+6	1.087E+6	  -19.6624	    8.1724	    4.6607	  -29.9688	
 -570.0000	7.039E-11	1.708E-11	2.222E+6	1.084E+6	  -19.6726	    8.1557	    4.6632	  -29.9751	
 -580.0000	7.030E-11	1.708E-11	2.221E+6	1.085E+6	  -19.6879	    8.1718	    4.6673	  -29.9543	
 -590.0000	7.004E-11	1.707E-11	2.227E+6	1.088E+6	  -19.6955	    8.1830	    4.6483	  -29.9892	
 -600.0000	6.984E-11	1.708E-11	2.226E+6	1.084E+6	  -19.7184	    8.1973	    4.6531	  -29.9682	
 -610.0000	7.046E-11	1.708E-11	2.220E+6	1.079E+6	  -19.7260	    8.1819	    4.6404	  -30.0078	
 -620.0000	7.060E-11	1.709E-11	2.218E+6	1.081E+6	  -19.7591	    8.2099	    4.6357	  -29.9986	
 -630.0000	7.019E-11	1.708E-11	2.226E+6	1.086E+6	  -19.7769	    8.2025	    4.6433	  -29.9867	
 -640.0000	7.030E-11	1.708E-11	2.223E+6	1.084E+6	  -19.7795	    8.2025	    4.6284	  -30.0204	
 -650.0000	7.003E-11	1.708E-11	2.226E+6	1.080E+6	  -19.8303	    8.2209	    4.6392	  -29.9728	
 -660.0000	7.081E-11	1.709E-11	2.215E+6	1.080E+6	  -19.8507	    8.1799	    4.6284	  -30.0365	
 -670.0000	7.032E-11	1.708E-11	2.225E+6	1.086E+6	  -19.8736	    8.1792	    4.6303	  -30.0327	
 -680.0000	6.968E-11	1.709E-11	2.228E+6	1.082E+6	  -19.8888	    8.1553	    4.6110	  -30.0937	
 -690.0000	7.020E-11	1.709E-11	2.226E+6	1.087E+6	  -19.9219	    8.1509	    4.6161	  -30.0853	
 -700.0000	7.004E-11	1.708E-11	2.225E+6	1.087E+6	  -19.9448	    8.1625	    4.6129	  -30.0842	
 -710.0000	6.967E-11	1.708E-11	2.232E+6	1.088E+6	  -19.9626	    8.1936	    4.6157	  -30.0555	
 -720.0000	6.929E-11	1.708E-11	2.237E+6	1.095E+6	  -20.0033	    8.1875	    4.6205	  -30.0491	
 -730.0000	6.964E-11	1.709E-11	2.230E+6	1.089E+6	  -20.0109	    8.1854	    4.6256	  -30.0391	
 -740.0000	6.956E-11	1.708E-11	2.233E+6	1.093E+6	  -20.0364	    8.1688	    4.6344	  -30.0308	
 -750.0000	6.988E-11	1.709E-11	2.232E+6	1.091E+6	  -20.0618	    8.1511	    4.6622	  -29.9805	
 -760.0000	6.986E-11	1.708E-11	2.230E+6	1.095E+6	  -20.0644	    8.1500	    4.6724	  -29.9585	
 -770.0000	6.948E-11	1.709E-11	2.235E+6	1.091E+6	  -20.0796	    8.1632	    4.6667	  -29.9619	
 -780.0000	6.974E-11	1.709E-11	2.236E+6	1.089E+6	  -20.1076	    8.1490	    4.6727	  -29.9585	
 -790.0000	6.942E-11	1.708E-11	2.237E+6	1.094E+6	  -20.1254	    8.1273	    4.6682	  -29.9840	
 -800.0000	6.912E-11	1.708E-11	2.240E+6	1.101E+6	  -20.1279	    8.1599	    4.6711	  -29.9543	
 -810.0000	6.934E-11	1.708E-11	2.242E+6	1.099E+6	  -20.1356	    8.1758	    4.6638	  -29.9593	
 -820.0000	6.885E-11	1.708E-11	2.248E+6	1.099E+6	  -20.1508	    8.1819	    4.6705	  -29.9399	
 -830.0000	6.903E-11	1.709E-11	2.242E+6	1.096E+6	  -20.1483	    8.1920	    4.6534	  -29.9713	
 -840.0000	6.990E-11	1.709E-11	2.230E+6	1.089E+6	  -20.1407	    8.2189	    4.6645	  -29.9270	
 -850.0000	6.936E-11	1.708E-11	2.239E+6	1.099E+6	  -20.1407	    8.2340	    4.6569	  -29.9334	
 -860.0000	6.956E-11	1.708E-11	2.236E+6	1.097E+6	  -20.1229	    8.2722	    4.6645	  -29.8889	
 -870.0000	6.915E-11	1.708E-11	2.245E+6	1.105E+6	  -20.1381	    8.2722	    4.6528	  -29.9153	
 -880.0000	6.907E-11	1.708E-11	2.243E+6	1.101E+6	  -20.1254	    8.2265	    4.6404	  -29.9760	
 -890.0000	6.865E-11	1.708E-11	2.254E+6	1.107E+6	  -20.1305	    8.2143	    4.6401	  -29.9854	
 -900.0000	6.850E-11	1.708E-11	2.250E+6	1.105E+6	  -20.1330	    8.2034	    4.6287	  -30.0191	
 -910.0000	6.899E-11	1.708E-11	2.248E+6	1.101E+6	  -20.1279	    8.2240	    4.6233	  -30.0165	
 -920.0000	6.865E-11	1.709E-11	2.251E+6	1.100E+6	  -20.1203	    8.1419	    4.5914	  -30.1480	
 -930.0000	6.875E-11	1.708E-11	2.251E+6	1.101E+6	  -20.1127	    8.1666	    4.6044	  -30.1008	
 -940.0000	6.899E-11	1.709E-11	2.248E+6	1.101E+6	  -20.0974	    8.2100	    4.6028	  -30.0734	
 -950.0000	6.923E-11	1.708E-11	2.250E+6	1.102E+6	  -20.0923	    8.2117	    4.5927	  -30.0953	
 -960.0000	6.875E-11	1.708E-11	2.252E+6	1.106E+6	  -20.0923	    8.2147	    4.5854	  -30.1098	
 -970.0000	6.860E-11	1.708E-11	2.258E+6	1.103E+6	  -20.0694	    8.2028	    4.5743	  -30.1437	
 -980.0000	6.893E-11	1.708E-11	2.255E+6	1.104E+6	  -20.0491	    8.1560	    4.5737	  -30.1785	
 -990.0000	6.845E-11	1.708E-11	2.262E+6	1.105E+6	  -20.0364	    8.1783	    4.5651	  -30.1822	
-1000.0000	6.909E-11	1.708E-11	2.253E+6	1.101E+6	  -20.0211	    8.2018	    4.5721	  -30.1495	
