GCD Test
Bias: 5000.000000
IV_D0_CO138_LargeDiode_GRConnected_Irradiated_100min
Date/Time: 8/5/2021 12:14:48 PM
Sensor Name: CO138
Type: N
Annealing Status: Irradiated and Annealed at 60C for 100 Minutes
Environment: -20C
Tester: Andrew Kent

Time Delay per Ramp Step (s): 0.500

CV Time Delay per Measurement (s) :0.500

AC Voltage (V): 0.500

Current Number of measurements per voltage: 4.000

IV Time Delay per Measurement (s) :0.000


BiasVoltage	Total Current_Avg	Total Current_0	Total Current_1	Total Current_2	Total Current_3	Bias Current_Avg	Bias Current_0	Bias Current_1	Bias Current_2	Bias Current_3	Temperature	Air_Temp	Humidity	Dewpoint	
    1.0000	 3.1053E-7	 3.0980E-7	 3.1080E-7	 3.1090E-7	 3.1060E-7	3.126454E-7	3.125318E-7	3.127185E-7	3.122604E-7	3.130708E-7	  -20.0567	   13.1911	    4.4503	  -26.8927	
    2.0000	 4.2373E-7	 4.2370E-7	 4.2240E-7	 4.2280E-7	 4.2600E-7	4.254487E-7	4.261350E-7	4.239468E-7	4.250614E-7	4.266515E-7	  -20.0669	   13.2057	    4.5316	  -26.6862	
    3.0000	 5.1200E-7	 5.1440E-7	 5.1120E-7	 5.0970E-7	 5.1270E-7	5.137426E-7	5.143493E-7	5.144603E-7	5.135865E-7	5.125745E-7	  -20.0745	   13.1525	    4.5130	  -26.7686	
    4.0000	 5.8917E-7	 5.8860E-7	 5.8800E-7	 5.9110E-7	 5.8900E-7	5.894027E-7	5.878584E-7	5.893457E-7	5.922384E-7	5.881681E-7	  -20.0822	   13.1312	    4.4855	  -26.8500	
    5.0000	 6.5837E-7	 6.5610E-7	 6.6010E-7	 6.6040E-7	 6.5690E-7	6.607649E-7	6.578436E-7	6.605362E-7	6.615591E-7	6.631207E-7	  -20.0822	   13.0740	    4.4029	  -27.0915	
    6.0000	 7.2563E-7	 7.2560E-7	 7.2440E-7	 7.2460E-7	 7.2790E-7	7.263390E-7	7.274186E-7	7.254943E-7	7.270915E-7	7.253518E-7	  -20.0822	   13.0552	    4.4263	  -27.0475	
    7.0000	 7.8420E-7	 7.8500E-7	 7.8730E-7	 7.8250E-7	 7.8200E-7	7.840606E-7	7.837895E-7	7.846970E-7	7.827953E-7	7.849607E-7	  -20.0898	   13.0947	    4.4671	  -26.9202	
    8.0000	 8.4023E-7	 8.3860E-7	 8.4220E-7	 8.4160E-7	 8.3850E-7	8.389384E-7	8.375206E-7	8.398940E-7	8.405930E-7	8.377462E-7	  -20.0872	   13.0729	    4.4121	  -27.0697	
    9.0000	 8.9462E-7	 8.9170E-7	 8.9310E-7	 8.9580E-7	 8.9790E-7	8.960198E-7	8.971791E-7	8.976351E-7	8.941447E-7	8.951201E-7	  -20.0872	   13.0244	    4.4254	  -27.0715	
   10.0000	 9.4895E-7	 9.5020E-7	 9.4610E-7	 9.5030E-7	 9.4920E-7	9.530384E-7	9.534721E-7	9.543745E-7	9.510239E-7	9.532829E-7	  -20.0745	   13.0440	    4.3877	  -27.1500	
   20.0000	 1.3975E-6	 1.4000E-6	 1.3930E-6	 1.3980E-6	 1.3990E-6	1.402343E-6	1.397713E-6	1.407174E-6	1.404967E-6	1.399520E-6	  -20.0771	   13.0817	    4.4405	  -26.9940	
   30.0000	 1.7707E-6	 1.7640E-6	 1.7650E-6	 1.7740E-6	 1.7800E-6	1.779698E-6	1.782755E-6	1.785472E-6	1.775319E-6	1.775246E-6	  -20.0771	   13.0637	    4.4472	  -26.9905	
   40.0000	 2.0940E-6	 2.0900E-6	 2.0990E-6	 2.0970E-6	 2.0900E-6	2.093152E-6	2.083877E-6	2.086754E-6	2.095658E-6	2.106320E-6	  -20.0669	   13.0303	    4.4342	  -27.0457	
   50.0000	 2.3893E-6	 2.3860E-6	 2.3880E-6	 2.3900E-6	 2.3930E-6	2.392394E-6	2.391271E-6	2.397177E-6	2.392333E-6	2.388796E-6	  -20.0618	   13.0614	    4.4491	  -26.9875	
   60.0000	 2.6660E-6	 2.6610E-6	 2.6720E-6	 2.6680E-6	 2.6630E-6	2.659001E-6	2.661026E-6	2.656823E-6	2.659556E-6	2.658601E-6	  -20.0567	   13.0813	    4.4254	  -27.0313	
   70.0000	 2.9077E-6	 2.9170E-6	 2.9100E-6	 2.9070E-6	 2.8970E-6	2.924665E-6	2.910555E-6	2.915058E-6	2.943324E-6	2.929725E-6	  -20.0491	   13.0852	    4.4589	  -26.9469	
   80.0000	 3.1438E-6	 3.1380E-6	 3.1480E-6	 3.1520E-6	 3.1370E-6	3.145291E-6	3.129190E-6	3.134854E-6	3.145439E-6	3.171681E-6	  -20.0338	   13.0705	    4.4598	  -26.9550	
   90.0000	 3.3652E-6	 3.3600E-6	 3.3590E-6	 3.3670E-6	 3.3750E-6	3.364243E-6	3.359962E-6	3.370552E-6	3.366984E-6	3.359476E-6	  -20.0262	   13.0650	    4.5041	  -26.8519	
  100.0000	 3.5885E-6	 3.5940E-6	 3.5850E-6	 3.5790E-6	 3.5960E-6	3.577079E-6	3.577310E-6	3.592267E-6	3.574307E-6	3.564432E-6	  -20.0186	   13.0349	    4.4715	  -26.9518	
  120.0000	 3.9680E-6	 3.9640E-6	 3.9800E-6	 3.9600E-6	 3.9680E-6	3.980818E-6	3.971339E-6	3.987492E-6	3.993970E-6	3.970471E-6	  -20.0135	   13.0101	    4.5133	  -26.8687	
  140.0000	 4.3335E-6	 4.3460E-6	 4.3280E-6	 4.3240E-6	 4.3360E-6	4.324751E-6	4.340592E-6	4.331325E-6	4.315222E-6	4.311863E-6	  -20.0008	   13.0040	    4.5127	  -26.8746	
  160.0000	 4.6362E-6	 4.6370E-6	 4.6340E-6	 4.6420E-6	 4.6320E-6	4.649389E-6	4.641844E-6	4.662635E-6	4.655781E-6	4.637295E-6	  -19.9855	   12.9722	    4.5250	  -26.8675	
  180.0000	 4.9158E-6	 4.9280E-6	 4.9200E-6	 4.9130E-6	 4.9020E-6	4.935241E-6	4.919036E-6	4.942450E-6	4.932199E-6	4.947279E-6	  -19.9957	   12.9953	    4.5218	  -26.8587	
  200.0000	 5.2025E-6	 5.1920E-6	 5.2070E-6	 5.2290E-6	 5.1820E-6	5.192907E-6	5.174865E-6	5.199843E-6	5.189681E-6	5.207237E-6	  -19.9931	   12.9953	    4.5446	  -26.8043	
  220.0000	 5.4470E-6	 5.4580E-6	 5.4610E-6	 5.4320E-6	 5.4370E-6	5.448537E-6	5.447988E-6	5.473163E-6	5.452559E-6	5.420438E-6	  -19.9931	   12.9659	    4.5876	  -26.7230	
  240.0000	 5.6635E-6	 5.6760E-6	 5.6580E-6	 5.6600E-6	 5.6600E-6	5.649462E-6	5.666514E-6	5.651462E-6	5.635696E-6	5.644178E-6	  -19.9906	   12.9895	    4.6793	  -26.4913	
  260.0000	 5.8780E-6	 5.8730E-6	 5.8780E-6	 5.8950E-6	 5.8660E-6	5.866221E-6	5.839812E-6	5.861689E-6	5.896344E-6	5.867039E-6	  -19.9855	   12.9798	    4.5658	  -26.7648	
  280.0000	 6.0463E-6	 6.0470E-6	 6.0630E-6	 6.0390E-6	 6.0360E-6	6.061290E-6	6.073080E-6	6.057712E-6	6.043217E-6	6.071150E-6	  -19.9855	   12.9360	    4.6053	  -26.7024	
  300.0000	 6.2358E-6	 6.2380E-6	 6.2350E-6	 6.2430E-6	 6.2270E-6	6.238025E-6	6.212105E-6	6.227042E-6	6.267474E-6	6.245480E-6	  -19.9880	   12.8979	    4.5481	  -26.8651	
  320.0000	 6.4175E-6	 6.3740E-6	 6.4350E-6	 6.4430E-6	 6.4180E-6	6.395338E-6	6.400184E-6	6.375598E-6	6.395400E-6	6.410171E-6	  -19.9880	   12.8998	    4.5300	  -26.9067	
  340.0000	 6.5217E-6	 6.5160E-6	 6.5140E-6	 6.5240E-6	 6.5330E-6	6.543516E-6	6.544682E-6	6.533094E-6	6.529549E-6	6.566741E-6	  -19.9906	   12.8700	    4.4519	  -27.1160	
  360.0000	 6.7175E-6	 6.7280E-6	 6.7160E-6	 6.7180E-6	 6.7080E-6	6.713140E-6	6.721155E-6	6.740781E-6	6.711938E-6	6.678687E-6	  -19.9957	   12.8759	    4.5016	  -26.9919	
  380.0000	 6.8172E-6	 6.8170E-6	 6.8140E-6	 6.8160E-6	 6.8220E-6	6.851213E-6	6.843755E-6	6.844760E-6	6.868656E-6	6.847680E-6	  -20.0059	   12.8941	    4.4469	  -27.1113	
  400.0000	 6.9600E-6	 6.9560E-6	 6.9600E-6	 6.9530E-6	 6.9710E-6	6.929896E-6	6.964578E-6	6.930587E-6	6.903464E-6	6.920954E-6	  -20.0135	   12.8941	    4.4927	  -27.0003	
  420.0000	 7.0580E-6	 7.0570E-6	 7.0600E-6	 7.0560E-6	 7.0590E-6	7.072184E-6	7.076585E-6	7.079838E-6	7.059449E-6	7.072864E-6	  -20.0109	   12.8705	    4.5522	  -26.8747	
  440.0000	 7.1447E-6	 7.1440E-6	 7.1670E-6	 7.1400E-6	 7.1280E-6	7.147582E-6	7.142603E-6	7.153983E-6	7.147197E-6	7.146543E-6	  -20.0084	   12.8799	    4.4377	  -27.1436	
  460.0000	 7.2605E-6	 7.3060E-6	 7.2480E-6	 7.2440E-6	 7.2440E-6	7.264668E-6	7.265144E-6	7.287683E-6	7.260825E-6	7.245022E-6	  -20.0160	   12.8845	    4.4390	  -27.1373	
  480.0000	 7.3785E-6	 7.3680E-6	 7.3780E-6	 7.3970E-6	 7.3710E-6	7.388413E-6	7.359334E-6	7.392218E-6	7.400367E-6	7.401733E-6	  -20.0237	   12.8794	    4.4940	  -27.0077	
  500.0000	 7.4220E-6	 7.4310E-6	 7.4030E-6	 7.4280E-6	 7.4260E-6	7.439008E-6	7.390333E-6	7.413481E-6	7.465467E-6	7.486752E-6	  -20.0287	   12.8794	    4.5041	  -26.9833	
  520.0000	 7.4995E-6	 7.5070E-6	 7.5010E-6	 7.4870E-6	 7.5030E-6	7.535365E-6	7.530057E-6	7.525053E-6	7.557740E-6	7.528610E-6	  -20.0313	   12.9073	    4.5006	  -26.9719	
  540.0000	 7.6447E-6	 7.6660E-6	 7.6780E-6	 7.6160E-6	 7.6190E-6	7.656504E-6	7.649386E-6	7.650345E-6	7.669308E-6	7.656976E-6	  -20.0415	   12.8862	    4.5098	  -26.9648	
  560.0000	 7.6990E-6	 7.6990E-6	 7.7050E-6	 7.6900E-6	 7.7020E-6	7.686734E-6	7.695256E-6	7.681860E-6	7.663903E-6	7.705916E-6	  -20.0465	   12.8741	    4.5022	  -26.9917	
  580.0000	 7.8010E-6	 7.7740E-6	 7.7740E-6	 7.8380E-6	 7.8180E-6	7.833869E-6	7.872713E-6	7.856050E-6	7.816420E-6	7.790291E-6	  -20.0440	   12.9181	    4.4535	  -27.0781	
  600.0000	 7.8763E-6	 7.8810E-6	 7.8770E-6	 7.8470E-6	 7.9000E-6	7.900013E-6	7.910643E-6	7.896936E-6	7.910672E-6	7.881800E-6	  -20.0415	   12.9225	    4.4478	  -27.0888	
  620.0000	 7.9612E-6	 7.9310E-6	 7.9790E-6	 7.9690E-6	 7.9660E-6	7.948432E-6	7.951231E-6	7.937658E-6	7.960324E-6	7.944515E-6	  -20.0364	   12.9327	    4.4349	  -27.1132	
  640.0000	 8.0258E-6	 8.0050E-6	 8.0150E-6	 8.0490E-6	 8.0340E-6	8.032884E-6	8.041123E-6	8.063245E-6	8.028818E-6	7.998348E-6	  -20.0389	   12.9115	    4.3966	  -27.2218	
  660.0000	 8.1245E-6	 8.1190E-6	 8.1450E-6	 8.1270E-6	 8.1070E-6	8.111798E-6	8.093151E-6	8.064046E-6	8.120976E-6	8.169017E-6	  -20.0389	   12.8918	    4.4026	  -27.2210	
  680.0000	 8.2130E-6	 8.2040E-6	 8.2360E-6	 8.2220E-6	 8.1900E-6	8.208580E-6	8.187906E-6	8.197679E-6	8.221497E-6	8.227237E-6	  -20.0415	   12.8747	    4.4295	  -27.1673	
  700.0000	 8.3375E-6	 8.3460E-6	 8.3650E-6	 8.3210E-6	 8.3180E-6	8.318224E-6	8.333859E-6	8.323240E-6	8.296625E-6	8.319172E-6	  -20.0389	   12.8747	    4.4238	  -27.1812	
  720.0000	 8.4347E-6	 8.4620E-6	 8.4220E-6	 8.4260E-6	 8.4290E-6	8.439854E-6	8.415289E-6	8.421965E-6	8.427046E-6	8.495117E-6	  -20.0415	   12.8919	    4.3880	  -27.2567	
  740.0000	 8.5580E-6	 8.5520E-6	 8.5570E-6	 8.5580E-6	 8.5650E-6	8.580872E-6	8.591195E-6	8.579010E-6	8.574215E-6	8.579068E-6	  -20.0364	   12.7895	    4.3830	  -27.3414	
  760.0000	 8.6830E-6	 8.6710E-6	 8.6640E-6	 8.7060E-6	 8.6910E-6	8.691167E-6	8.720943E-6	8.698492E-6	8.661261E-6	8.683972E-6	  -20.0313	   12.8135	    4.3691	  -27.3588	
  780.0000	 8.8120E-6	 8.7950E-6	 8.8200E-6	 8.8290E-6	 8.8040E-6	8.791427E-6	8.782674E-6	8.787112E-6	8.796886E-6	8.799037E-6	  -20.0262	   12.8122	    4.4023	  -27.2780	
  800.0000	 8.9520E-6	 8.9590E-6	 8.9500E-6	 8.9540E-6	 8.9450E-6	8.972810E-6	8.971698E-6	8.964514E-6	8.973110E-6	8.981919E-6	  -20.0364	   12.8627	    4.3710	  -27.3194	
  820.0000	 9.0935E-6	 9.1000E-6	 9.1070E-6	 9.0910E-6	 9.0760E-6	9.061621E-6	9.035850E-6	9.024176E-6	9.058837E-6	9.127622E-6	  -20.0364	   12.8538	    4.3947	  -27.2672	
  840.0000	 9.2642E-6	 9.2480E-6	 9.2410E-6	 9.2700E-6	 9.2980E-6	9.288637E-6	9.295783E-6	9.299963E-6	9.280624E-6	9.278179E-6	  -20.0313	   12.8159	    4.4266	  -27.2158	
  860.0000	 9.4350E-6	 9.4470E-6	 9.4400E-6	 9.4150E-6	 9.4380E-6	9.448101E-6	9.436013E-6	9.499699E-6	9.453419E-6	9.403272E-6	  -20.0211	   12.8542	    4.4156	  -27.2158	
  880.0000	 9.5740E-6	 9.5520E-6	 9.6010E-6	 9.5910E-6	 9.5520E-6	9.535655E-6	9.552210E-6	9.548951E-6	9.526856E-6	9.514602E-6	  -20.0262	   12.8548	    4.3529	  -27.3695	
  900.0000	 9.7683E-6	 9.7620E-6	 9.7540E-6	 9.7880E-6	 9.7690E-6	9.791959E-6	9.788534E-6	9.783528E-6	9.813852E-6	9.781922E-6	  -20.0287	   12.8060	    4.3738	  -27.3524	
  920.0000	 9.9378E-6	 9.9170E-6	 9.9270E-6	 9.9790E-6	 9.9280E-6	9.965552E-6	9.911898E-6	9.960074E-6	1.000469E-5	9.985545E-6	  -20.0364	   12.8057	    4.3194	  -27.4874	
  940.0000	 1.0155E-5	 1.0170E-5	 1.0150E-5	 1.0170E-5	 1.0130E-5	1.011853E-5	1.010865E-5	1.011758E-5	1.014844E-5	1.009946E-5	  -20.0287	   12.8443	    4.3466	  -27.3926	
  960.0000	 1.0325E-5	 1.0330E-5	 1.0310E-5	 1.0320E-5	 1.0340E-5	1.036131E-5	1.032956E-5	1.036037E-5	1.039929E-5	1.035604E-5	  -20.0338	   12.7987	    4.3131	  -27.5082	
  980.0000	 1.0545E-5	 1.0600E-5	 1.0550E-5	 1.0520E-5	 1.0510E-5	1.053609E-5	1.050291E-5	1.056891E-5	1.057162E-5	1.050093E-5	  -20.0338	   12.7395	    4.2900	  -27.6077	
 1000.0000	 1.0780E-5	 1.0830E-5	 1.0800E-5	 1.0760E-5	 1.0730E-5	1.071344E-5	1.068519E-5	1.070765E-5	1.074008E-5	1.072083E-5	  -20.0262	   12.7395	    4.2989	  -27.5855	
