GCD Test
Bias: 5000.000000
IV_D0_CO143_LargeDiode_GRConnected_Irradiated_90min
Date/Time: 9/30/2021 12:19:10 PM
Sensor Name: CO143
Type: N
Annealing Status: Irradiated and Annealed at 60C for 90 min
Environment: -20C
Tester: Andrew Kent

Time Delay per Ramp Step (s): 0.500

CV Time Delay per Measurement (s) :0.500

AC Voltage (V): 0.500

Current Number of measurements per voltage: 4.000

IV Time Delay per Measurement (s) :0.000


BiasVoltage	Total Current_Avg	Total Current_0	Total Current_1	Total Current_2	Total Current_3	Bias Current_Avg	Bias Current_0	Bias Current_1	Bias Current_2	Bias Current_3	Temperature	Air_Temp	Humidity	Dewpoint	
    1.0000	 5.4065E-7	 5.4090E-7	 5.3950E-7	 5.4140E-7	 5.4080E-7	5.045566E-7	5.031207E-7	5.056736E-7	5.043296E-7	5.051025E-7	  -20.0389	   14.2100	    3.3884	  -29.1047	
    2.0000	 8.5920E-7	 8.6010E-7	 8.6200E-7	 8.5810E-7	 8.5660E-7	7.906356E-7	7.875659E-7	7.914463E-7	7.926864E-7	7.908438E-7	  -20.0211	   14.1938	    3.3719	  -29.1675	
    3.0000	 1.0552E-6	 1.0540E-6	 1.0580E-6	 1.0560E-6	 1.0530E-6	9.683839E-7	9.670997E-7	9.659658E-7	9.685168E-7	9.719533E-7	  -20.0033	   14.2080	    3.3801	  -29.1319	
    4.0000	 1.2193E-6	 1.2210E-6	 1.2160E-6	 1.2200E-6	 1.2200E-6	1.115462E-6	1.113680E-6	1.114605E-6	1.115391E-6	1.118171E-6	  -20.0033	   14.2384	    3.3811	  -29.1080	
    5.0000	 1.3665E-6	 1.3640E-6	 1.3670E-6	 1.3650E-6	 1.3700E-6	1.247839E-6	1.247828E-6	1.245429E-6	1.248037E-6	1.250062E-6	  -20.0008	   14.2962	    3.3839	  -29.0594	
    6.0000	 1.5030E-6	 1.5010E-6	 1.5020E-6	 1.5050E-6	 1.5040E-6	1.372373E-6	1.370304E-6	1.375029E-6	1.371107E-6	1.373053E-6	  -19.9830	   14.2788	    3.3795	  -29.0852	
    7.0000	 1.6268E-6	 1.6250E-6	 1.6300E-6	 1.6290E-6	 1.6230E-6	1.478673E-6	1.479533E-6	1.475175E-6	1.475163E-6	1.484821E-6	  -19.9931	   14.1955	    3.3586	  -29.2081	
    8.0000	 1.7408E-6	 1.7420E-6	 1.7410E-6	 1.7400E-6	 1.7400E-6	1.587790E-6	1.591548E-6	1.586278E-6	1.587327E-6	1.586007E-6	  -19.9906	   14.2129	    3.3779	  -29.1354	
    9.0000	 1.8468E-6	 1.8460E-6	 1.8460E-6	 1.8430E-6	 1.8520E-6	1.685904E-6	1.692299E-6	1.688486E-6	1.684346E-6	1.678485E-6	  -20.0033	   14.3486	    3.3650	  -29.0831	
   10.0000	 1.9517E-6	 1.9550E-6	 1.9440E-6	 1.9530E-6	 1.9550E-6	1.777432E-6	1.786262E-6	1.777063E-6	1.776114E-6	1.770288E-6	  -19.9906	   14.3837	    3.3738	  -29.0311	
   20.0000	 2.8430E-6	 2.8390E-6	 2.8450E-6	 2.8490E-6	 2.8390E-6	2.567072E-6	2.562888E-6	2.566618E-6	2.572139E-6	2.566644E-6	  -19.9906	   14.3475	    3.3836	  -29.0252	
   30.0000	 3.5745E-6	 3.5800E-6	 3.5770E-6	 3.5790E-6	 3.5620E-6	3.220568E-6	3.201867E-6	3.219179E-6	3.227954E-6	3.233273E-6	  -19.9880	   14.2874	    3.3621	  -29.1341	
   40.0000	 4.2215E-6	 4.2380E-6	 4.2160E-6	 4.2280E-6	 4.2040E-6	3.772344E-6	3.774067E-6	3.779021E-6	3.764303E-6	3.771985E-6	  -19.9982	   14.2381	    3.3624	  -29.1669	
   50.0000	 4.8358E-6	 4.8240E-6	 4.8310E-6	 4.8450E-6	 4.8430E-6	4.301199E-6	4.301332E-6	4.302835E-6	4.298362E-6	4.302266E-6	  -20.0491	   14.1934	    3.3602	  -29.2045	
   60.0000	 5.3915E-6	 5.3850E-6	 5.3840E-6	 5.3910E-6	 5.4060E-6	4.766761E-6	4.764595E-6	4.762108E-6	4.773886E-6	4.766453E-6	  -20.0440	   14.1385	    3.3871	  -29.1578	
   70.0000	 5.9330E-6	 5.9170E-6	 5.9320E-6	 5.9480E-6	 5.9350E-6	5.212956E-6	5.222216E-6	5.206070E-6	5.220297E-6	5.203243E-6	  -20.0567	   14.1483	    3.4026	  -29.1027	
   80.0000	 6.3970E-6	 6.4030E-6	 6.3860E-6	 6.3850E-6	 6.4140E-6	5.596095E-6	5.615396E-6	5.596887E-6	5.592107E-6	5.579990E-6	  -20.0491	   14.0562	    3.4453	  -29.0337	
   90.0000	 6.8893E-6	 6.8920E-6	 6.8770E-6	 6.8940E-6	 6.8940E-6	6.028680E-6	6.039308E-6	6.022555E-6	6.034670E-6	6.018186E-6	  -20.0516	   14.1223	    3.4548	  -28.9590	
  100.0000	 7.3412E-6	 7.3250E-6	 7.3490E-6	 7.3410E-6	 7.3500E-6	6.450813E-6	6.471933E-6	6.455213E-6	6.435661E-6	6.440447E-6	  -20.0593	   14.1589	    3.4396	  -28.9806	
  120.0000	 8.2095E-6	 8.1960E-6	 8.2170E-6	 8.2120E-6	 8.2130E-6	7.189718E-6	7.165481E-6	7.169558E-6	7.183724E-6	7.240107E-6	  -20.0542	   14.1197	    3.4355	  -29.0203	
  140.0000	 9.0667E-6	 9.0250E-6	 9.0530E-6	 9.1000E-6	 9.0890E-6	7.885044E-6	7.897028E-6	7.865036E-6	7.875369E-6	7.902742E-6	  -20.0415	   14.0741	    3.4026	  -29.1537	
  160.0000	 1.0860E-5	 1.0520E-5	 1.0730E-5	 1.0980E-5	 1.1210E-5	8.498734E-6	8.505571E-6	8.487003E-6	8.497009E-6	8.505354E-6	  -20.0287	   14.0741	    3.3843	  -29.2110	
  180.0000	 1.5033E-5	 1.4520E-5	 1.4910E-5	 1.5190E-5	 1.5510E-5	9.043085E-6	9.048174E-6	9.030756E-6	9.037097E-6	9.056314E-6	  -20.0135	   14.0896	    3.3732	  -29.2351	
  200.0000	 1.9285E-5	 1.9000E-5	 1.9210E-5	 1.9420E-5	 1.9510E-5	9.460837E-6	9.454883E-6	9.463721E-6	9.463431E-6	9.461312E-6	  -20.0237	   14.0916	    3.3833	  -29.2019	
  220.0000	 2.2872E-5	 2.2720E-5	 2.2860E-5	 2.2870E-5	 2.3040E-5	9.903568E-6	9.890498E-6	9.903551E-6	9.903165E-6	9.917056E-6	  -20.0135	   14.1391	    3.3909	  -29.1455	
  240.0000	 2.6095E-5	 2.5920E-5	 2.6030E-5	 2.6150E-5	 2.6280E-5	1.040206E-5	1.043772E-5	1.041596E-5	1.037341E-5	1.038115E-5	  -20.0008	   14.1207	    3.4077	  -29.1059	
  260.0000	 2.9107E-5	 2.9050E-5	 2.9010E-5	 2.9060E-5	 2.9310E-5	1.082797E-5	1.083634E-5	1.084841E-5	1.081099E-5	1.081613E-5	  -20.0211	   14.0948	    3.4127	  -29.1080	
  280.0000	 3.1922E-5	 3.1860E-5	 3.1880E-5	 3.1950E-5	 3.2000E-5	1.125438E-5	1.120706E-5	1.126504E-5	1.129043E-5	1.125500E-5	  -20.0059	   14.0121	    3.4358	  -29.0934	
  300.0000	 3.4648E-5	 3.4610E-5	 3.4540E-5	 3.4600E-5	 3.4840E-5	1.167356E-5	1.168452E-5	1.167906E-5	1.165960E-5	1.167106E-5	  -20.0160	   14.0824	    3.4209	  -29.0909	
  320.0000	 3.7360E-5	 3.7240E-5	 3.7300E-5	 3.7350E-5	 3.7550E-5	1.208550E-5	1.209435E-5	1.210469E-5	1.208635E-5	1.205663E-5	  -20.0135	   14.0735	    3.4336	  -29.0580	
  340.0000	 4.0060E-5	 4.0000E-5	 4.0050E-5	 4.0200E-5	 3.9990E-5	1.243110E-5	1.242108E-5	1.244512E-5	1.240851E-5	1.244970E-5	  -19.9957	   14.0520	    3.4301	  -29.0835	
  360.0000	 4.2315E-5	 4.2280E-5	 4.2280E-5	 4.2200E-5	 4.2500E-5	1.286788E-5	1.293606E-5	1.288079E-5	1.282592E-5	1.282877E-5	  -20.0059	   14.0547	    3.4165	  -29.1237	
  380.0000	 4.4722E-5	 4.4720E-5	 4.4720E-5	 4.4710E-5	 4.4740E-5	1.329327E-5	1.326781E-5	1.326681E-5	1.332553E-5	1.331292E-5	  -19.9804	   13.9997	    3.4149	  -29.1665	
  400.0000	 4.7105E-5	 4.7210E-5	 4.7130E-5	 4.7060E-5	 4.7020E-5	1.363676E-5	1.363644E-5	1.361756E-5	1.366163E-5	1.363140E-5	  -19.9830	   14.0658	    3.4111	  -29.1328	
  420.0000	 4.9478E-5	 4.9420E-5	 4.9460E-5	 4.9510E-5	 4.9520E-5	1.406154E-5	1.405490E-5	1.406572E-5	1.406876E-5	1.405679E-5	  -19.9906	   14.0191	    3.4231	  -29.1276	
  440.0000	 5.1635E-5	 5.1670E-5	 5.1510E-5	 5.1680E-5	 5.1680E-5	1.444293E-5	1.440339E-5	1.441332E-5	1.444558E-5	1.450945E-5	  -19.9677	   13.9375	    3.4314	  -29.1583	
  460.0000	 5.3720E-5	 5.3740E-5	 5.3810E-5	 5.3700E-5	 5.3630E-5	1.472958E-5	1.472679E-5	1.469415E-5	1.475637E-5	1.474102E-5	  -19.9677	   13.9594	    3.4244	  -29.1648	
  480.0000	 5.5865E-5	 5.5960E-5	 5.5680E-5	 5.5860E-5	 5.5960E-5	1.510872E-5	1.510234E-5	1.507749E-5	1.512794E-5	1.512712E-5	  -19.9423	   13.9755	    3.4073	  -29.2067	
  500.0000	 5.8045E-5	 5.8090E-5	 5.8040E-5	 5.8070E-5	 5.7980E-5	1.545549E-5	1.547389E-5	1.541815E-5	1.544077E-5	1.548914E-5	  -19.9321	   14.0321	    3.3963	  -29.2023	
  520.0000	 5.9985E-5	 6.0250E-5	 6.0110E-5	 5.9870E-5	 5.9710E-5	1.579162E-5	1.586774E-5	1.579406E-5	1.577962E-5	1.572507E-5	  -19.9321	   14.0449	    3.4133	  -29.1403	
  540.0000	 6.1957E-5	 6.1860E-5	 6.1940E-5	 6.2050E-5	 6.1980E-5	1.609357E-5	1.607617E-5	1.609239E-5	1.613635E-5	1.606936E-5	  -19.9346	   14.0023	    3.4526	  -29.0484	
  560.0000	 6.3980E-5	 6.3840E-5	 6.4000E-5	 6.4160E-5	 6.3920E-5	1.645047E-5	1.650684E-5	1.646104E-5	1.643707E-5	1.639695E-5	  -19.9346	   13.9689	    3.4478	  -29.0860	
  580.0000	 6.5865E-5	 6.5900E-5	 6.5670E-5	 6.6040E-5	 6.5850E-5	1.674697E-5	1.673695E-5	1.670471E-5	1.674898E-5	1.679723E-5	  -19.9626	   14.0170	    3.4421	  -29.0704	
  600.0000	 6.7720E-5	 6.7620E-5	 6.7960E-5	 6.7780E-5	 6.7520E-5	1.701058E-5	1.704183E-5	1.700309E-5	1.696166E-5	1.703575E-5	  -19.9906	   13.9850	    3.4503	  -29.0672	
  620.0000	 6.9582E-5	 6.9440E-5	 6.9550E-5	 6.9710E-5	 6.9630E-5	1.737570E-5	1.738375E-5	1.733712E-5	1.738121E-5	1.740070E-5	  -19.9804	   13.8909	    3.4418	  -29.1582	
  640.0000	 7.1437E-5	 7.1640E-5	 7.1430E-5	 7.1380E-5	 7.1300E-5	1.763127E-5	1.762196E-5	1.757782E-5	1.769133E-5	1.763397E-5	  -19.9830	   13.8909	    3.4488	  -29.1368	
  660.0000	 7.3275E-5	 7.3490E-5	 7.3200E-5	 7.3130E-5	 7.3280E-5	1.802831E-5	1.803376E-5	1.801819E-5	1.803292E-5	1.802839E-5	  -20.0237	   13.8212	    3.4421	  -29.2052	
  680.0000	 7.5223E-5	 7.5200E-5	 7.5220E-5	 7.5180E-5	 7.5290E-5	1.819967E-5	1.820609E-5	1.822508E-5	1.816889E-5	1.819862E-5	  -20.0338	   13.7505	    3.4326	  -29.2831	
  700.0000	 7.6918E-5	 7.6970E-5	 7.6990E-5	 7.7000E-5	 7.6710E-5	1.847480E-5	1.845144E-5	1.846848E-5	1.849484E-5	1.848443E-5	  -20.0262	   13.7219	    3.4213	  -29.3380	
  720.0000	 7.8652E-5	 7.8920E-5	 7.8460E-5	 7.8630E-5	 7.8600E-5	1.880420E-5	1.886783E-5	1.882179E-5	1.877643E-5	1.875077E-5	  -19.9931	   13.8315	    3.3808	  -29.3886	
  740.0000	 8.0405E-5	 8.0300E-5	 8.0610E-5	 8.0240E-5	 8.0470E-5	1.904817E-5	1.905128E-5	1.908800E-5	1.902179E-5	1.903161E-5	  -19.9855	   13.8244	    3.3688	  -29.4311	
  760.0000	 8.2325E-5	 8.2190E-5	 8.2270E-5	 8.2460E-5	 8.2380E-5	1.928443E-5	1.934117E-5	1.928453E-5	1.923496E-5	1.927707E-5	  -19.9906	   13.8481	    3.3485	  -29.4785	
  780.0000	 8.3840E-5	 8.3990E-5	 8.3780E-5	 8.3740E-5	 8.3850E-5	1.958776E-5	1.947657E-5	1.959366E-5	1.967276E-5	1.960804E-5	  -20.0033	   13.8178	    3.3381	  -29.5323	
  800.0000	 8.5653E-5	 8.5720E-5	 8.5470E-5	 8.5710E-5	 8.5710E-5	1.977121E-5	1.976934E-5	1.978187E-5	1.981417E-5	1.971948E-5	  -19.9957	   13.7878	    3.3185	  -29.6151	
  820.0000	 8.7552E-5	 8.7590E-5	 8.7500E-5	 8.7420E-5	 8.7700E-5	2.008988E-5	2.011503E-5	2.007162E-5	2.005463E-5	2.011822E-5	  -19.9982	   13.8534	    3.3112	  -29.5933	
  840.0000	 8.9085E-5	 8.9020E-5	 8.8950E-5	 8.9280E-5	 8.9090E-5	2.024445E-5	2.023654E-5	2.033275E-5	2.022659E-5	2.018193E-5	  -20.0059	   13.8534	    3.3017	  -29.6236	
  860.0000	 9.0973E-5	 9.0870E-5	 9.1180E-5	 9.1050E-5	 9.0790E-5	2.047963E-5	2.048351E-5	2.051584E-5	2.043979E-5	2.047938E-5	  -20.0084	   13.8171	    3.2973	  -29.6626	
  880.0000	 9.2892E-5	 9.2820E-5	 9.2890E-5	 9.2940E-5	 9.2920E-5	2.070449E-5	2.067328E-5	2.072672E-5	2.070274E-5	2.071521E-5	  -19.9880	   13.8685	    3.2935	  -29.6395	
  900.0000	 9.4593E-5	 9.4450E-5	 9.4480E-5	 9.4600E-5	 9.4840E-5	2.096290E-5	2.094511E-5	2.093709E-5	2.098467E-5	2.098473E-5	  -20.0033	   13.8859	    3.3201	  -29.5428	
  920.0000	 9.6750E-5	 9.6450E-5	 9.6740E-5	 9.7030E-5	 9.6780E-5	2.126374E-5	2.127818E-5	2.122747E-5	2.130787E-5	2.124143E-5	  -20.0287	   13.9132	    3.3346	  -29.4778	
  940.0000	 9.8530E-5	 9.8590E-5	 9.8510E-5	 9.8730E-5	 9.8290E-5	2.146761E-5	2.141933E-5	2.153421E-5	2.147469E-5	2.144220E-5	  -20.0287	   13.8967	    3.3571	  -29.4182	
  960.0000	 1.0030E-4	 1.0020E-4	 1.0040E-4	 1.0030E-4	 1.0030E-4	2.170020E-5	2.166491E-5	2.166565E-5	2.172988E-5	2.174035E-5	  -20.0237	   13.9003	    3.3732	  -29.3650	
  980.0000	 1.0250E-4	 1.0240E-4	 1.0270E-4	 1.0250E-4	 1.0240E-4	2.192737E-5	2.192010E-5	2.191837E-5	2.195391E-5	2.191711E-5	  -20.0465	   13.8688	    3.3681	  -29.4026	
 1000.0000	 1.0420E-4	 1.0420E-4	 1.0400E-4	 1.0420E-4	 1.0440E-4	2.216403E-5	2.211496E-5	2.210487E-5	2.216488E-5	2.227141E-5	  -20.0287	   13.8688	    3.3852	  -29.3491	
 1020.0000	 1.0598E-4	 1.0610E-4	 1.0610E-4	 1.0600E-4	 1.0570E-4	2.231567E-5	2.229111E-5	2.235788E-5	2.233712E-5	2.227656E-5	  -20.0338	   13.8631	    3.3994	  -29.3086	
 1040.0000	 1.0820E-4	 1.0830E-4	 1.0800E-4	 1.0820E-4	 1.0830E-4	2.255761E-5	2.254248E-5	2.257976E-5	2.254816E-5	2.256005E-5	  -20.0313	   13.8692	    3.3865	  -29.3448	
 1060.0000	 1.1038E-4	 1.1000E-4	 1.1080E-4	 1.1040E-4	 1.1030E-4	2.278988E-5	2.275192E-5	2.274681E-5	2.281635E-5	2.284444E-5	  -20.0465	   13.8782	    3.3972	  -29.3051	
 1080.0000	 1.1220E-4	 1.1190E-4	 1.1220E-4	 1.1220E-4	 1.1250E-4	2.308194E-5	2.314111E-5	2.310406E-5	2.305265E-5	2.302995E-5	  -20.0465	   13.7923	    3.3741	  -29.4363	
 1100.0000	 1.1460E-4	 1.1470E-4	 1.1460E-4	 1.1480E-4	 1.1430E-4	2.319821E-5	2.330591E-5	2.318948E-5	2.313500E-5	2.316245E-5	  -20.0542	   13.7336	    3.3817	  -29.4529	
