GCD Test
Bias: 5000.000000
IV_D0_CO145_LargeDiode_GRConnected_Irradiated_60min
Date/Time: 9/9/2021 2:11:35 PM
Sensor Name: CO145
Type: N
Annealing Status: Irradiated and Annealed at 60C for 60 min
Environment: -20C
Tester: Andrew Kent

Time Delay per Ramp Step (s): 0.500

CV Time Delay per Measurement (s) :0.500

AC Voltage (V): 0.500

Current Number of measurements per voltage: 4.000

IV Time Delay per Measurement (s) :0.000


BiasVoltage	Total Current_Avg	Total Current_0	Total Current_1	Total Current_2	Total Current_3	Bias Current_Avg	Bias Current_0	Bias Current_1	Bias Current_2	Bias Current_3	Temperature	Air_Temp	Humidity	Dewpoint	
    1.0000	 3.5360E-7	 3.5310E-7	 3.5280E-7	 3.5450E-7	 3.5400E-7	3.258571E-7	3.258181E-7	3.265017E-7	3.255594E-7	3.255492E-7	  -19.9397	   12.7682	    3.9203	  -28.5528	
    2.0000	 8.5162E-7	 8.4990E-7	 8.5380E-7	 8.5340E-7	 8.4940E-7	7.917080E-7	7.906718E-7	7.936030E-7	7.924165E-7	7.901406E-7	  -19.9219	   12.9200	    3.9105	  -28.4735	
    3.0000	 1.2372E-6	 1.2410E-6	 1.2380E-6	 1.2360E-6	 1.2340E-6	1.153837E-6	1.155076E-6	1.155232E-6	1.151742E-6	1.153299E-6	  -19.9321	   12.9107	    3.9039	  -28.4981	
    4.0000	 1.4993E-6	 1.4930E-6	 1.4950E-6	 1.5050E-6	 1.5040E-6	1.407783E-6	1.404826E-6	1.411010E-6	1.409746E-6	1.405549E-6	  -19.9524	   12.8118	    3.9121	  -28.5448	
    5.0000	 1.7172E-6	 1.7200E-6	 1.7150E-6	 1.7160E-6	 1.7180E-6	1.604024E-6	1.601911E-6	1.603260E-6	1.605330E-6	1.605595E-6	  -19.9448	   12.7325	    3.9102	  -28.6053	
    6.0000	 1.9113E-6	 1.9140E-6	 1.9150E-6	 1.9110E-6	 1.9050E-6	1.769890E-6	1.769442E-6	1.769099E-6	1.770089E-6	1.770931E-6	  -19.9550	   12.6457	    3.9121	  -28.6607	
    7.0000	 2.0768E-6	 2.0790E-6	 2.0720E-6	 2.0770E-6	 2.0790E-6	1.947827E-6	1.939561E-6	1.942248E-6	1.962904E-6	1.946594E-6	  -19.9652	   12.8275	    3.9102	  -28.5390	
    8.0000	 2.2493E-6	 2.2560E-6	 2.2470E-6	 2.2440E-6	 2.2500E-6	2.094993E-6	2.097590E-6	2.098578E-6	2.090621E-6	2.093184E-6	  -19.9702	   12.8332	    3.9096	  -28.5367	
    9.0000	 2.3985E-6	 2.4010E-6	 2.3890E-6	 2.4050E-6	 2.3990E-6	2.244850E-6	2.245535E-6	2.249892E-6	2.243776E-6	2.240199E-6	  -19.9779	   12.9323	    3.9225	  -28.4321	
   10.0000	 2.5503E-6	 2.5670E-6	 2.5430E-6	 2.5420E-6	 2.5490E-6	2.376607E-6	2.373437E-6	2.372073E-6	2.371614E-6	2.389303E-6	  -19.9931	   12.9323	    3.9352	  -28.3977	
   20.0000	 3.8623E-6	 3.8730E-6	 3.8510E-6	 3.8630E-6	 3.8620E-6	3.585600E-6	3.594630E-6	3.583979E-6	3.577876E-6	3.585916E-6	  -20.0033	   12.9742	    3.9314	  -28.3788	
   30.0000	 4.9255E-6	 4.9340E-6	 4.9330E-6	 4.9260E-6	 4.9090E-6	4.551270E-6	4.550871E-6	4.560913E-6	4.558265E-6	4.535030E-6	  -19.9957	   12.9530	    3.9367	  -28.3790	
   40.0000	 5.8965E-6	 5.9040E-6	 5.8910E-6	 5.9070E-6	 5.8840E-6	5.385838E-6	5.384920E-6	5.390512E-6	5.375537E-6	5.392382E-6	  -19.9906	   12.8841	    3.9409	  -28.4160	
   50.0000	 6.7880E-6	 6.7880E-6	 6.7660E-6	 6.8010E-6	 6.7970E-6	6.187173E-6	6.202907E-6	6.184182E-6	6.182830E-6	6.178775E-6	  -19.9906	   12.8724	    3.9396	  -28.4276	
   60.0000	 7.6428E-6	 7.6010E-6	 7.6380E-6	 7.6480E-6	 7.6840E-6	6.983621E-6	6.995472E-6	6.969874E-6	6.988994E-6	6.980145E-6	  -19.9855	   12.8724	    3.9190	  -28.4834	
   70.0000	 8.4825E-6	 8.4650E-6	 8.5020E-6	 8.4800E-6	 8.4830E-6	7.667710E-6	7.686052E-6	7.657931E-6	7.695152E-6	7.631706E-6	  -20.0033	   12.8111	    3.9089	  -28.5539	
   80.0000	 9.1370E-6	 9.1670E-6	 9.1400E-6	 9.1380E-6	 9.1030E-6	8.284932E-6	8.262757E-6	8.288101E-6	8.311803E-6	8.277068E-6	  -20.0084	   12.7705	    3.9070	  -28.5874	
   90.0000	 9.8100E-6	 9.7870E-6	 9.7780E-6	 9.8210E-6	 9.8540E-6	8.858024E-6	8.871428E-6	8.879871E-6	8.853500E-6	8.827297E-6	  -20.0008	   12.7759	    3.9045	  -28.5905	
  100.0000	 1.0540E-5	 1.0520E-5	 1.0530E-5	 1.0580E-5	 1.0530E-5	9.537868E-6	9.488306E-6	9.536398E-6	9.551938E-6	9.574829E-6	  -20.0262	   12.8821	    3.9026	  -28.5215	
  120.0000	 1.1978E-5	 1.2030E-5	 1.1940E-5	 1.1960E-5	 1.1980E-5	1.068104E-5	1.070112E-5	1.065468E-5	1.066066E-5	1.070769E-5	  -20.0415	   12.8938	    3.8763	  -28.5853	
  140.0000	 1.3147E-5	 1.3140E-5	 1.3090E-5	 1.3170E-5	 1.3190E-5	1.184950E-5	1.188103E-5	1.181266E-5	1.178685E-5	1.191744E-5	  -20.0287	   12.7501	    3.8574	  -28.7379	
  160.0000	 1.4392E-5	 1.4350E-5	 1.4380E-5	 1.4450E-5	 1.4390E-5	1.290172E-5	1.293173E-5	1.293386E-5	1.287198E-5	1.286931E-5	  -20.0338	   12.7164	    3.8640	  -28.7430	
  180.0000	 1.5425E-5	 1.5400E-5	 1.5420E-5	 1.5430E-5	 1.5450E-5	1.391430E-5	1.383511E-5	1.389658E-5	1.396326E-5	1.396224E-5	  -20.0313	   12.7277	    3.8681	  -28.7238	
  200.0000	 1.6502E-5	 1.6500E-5	 1.6440E-5	 1.6510E-5	 1.6560E-5	1.491510E-5	1.488260E-5	1.490729E-5	1.489608E-5	1.497445E-5	  -20.0364	   12.8480	    3.8482	  -28.6949	
  220.0000	 1.7695E-5	 1.7720E-5	 1.7710E-5	 1.7650E-5	 1.7700E-5	1.588783E-5	1.584810E-5	1.593762E-5	1.590235E-5	1.586324E-5	  -20.0364	   12.9221	    3.8343	  -28.6819	
  240.0000	 1.8725E-5	 1.8770E-5	 1.8770E-5	 1.8660E-5	 1.8700E-5	1.669008E-5	1.669482E-5	1.668956E-5	1.670863E-5	1.666729E-5	  -20.0313	   12.9345	    3.8267	  -28.6943	
  260.0000	 1.9750E-5	 1.9890E-5	 1.9790E-5	 1.9690E-5	 1.9630E-5	1.766743E-5	1.760503E-5	1.767737E-5	1.763453E-5	1.775279E-5	  -20.0415	   12.9370	    3.8261	  -28.6943	
  280.0000	 2.0770E-5	 2.0850E-5	 2.0680E-5	 2.0810E-5	 2.0740E-5	1.862636E-5	1.854585E-5	1.867092E-5	1.865268E-5	1.863599E-5	  -20.0415	   12.8700	    3.8232	  -28.7489	
  300.0000	 2.1750E-5	 2.1710E-5	 2.1720E-5	 2.1760E-5	 2.1810E-5	1.944877E-5	1.948759E-5	1.947850E-5	1.943436E-5	1.939464E-5	  -20.0237	   12.8445	    3.8365	  -28.7298	
  320.0000	 2.2857E-5	 2.2720E-5	 2.2810E-5	 2.2940E-5	 2.2960E-5	2.044917E-5	2.038968E-5	2.042708E-5	2.046130E-5	2.051863E-5	  -20.0211	   12.9216	    3.8223	  -28.7156	
  340.0000	 2.3820E-5	 2.3820E-5	 2.3740E-5	 2.3810E-5	 2.3910E-5	2.114812E-5	2.126977E-5	2.113640E-5	2.109549E-5	2.109083E-5	  -20.0287	   12.8639	    3.8431	  -28.6978	
  360.0000	 2.4917E-5	 2.4880E-5	 2.4900E-5	 2.4910E-5	 2.4980E-5	2.203484E-5	2.206320E-5	2.205134E-5	2.206804E-5	2.195678E-5	  -20.0211	   12.8516	    3.8593	  -28.6618	
  380.0000	 2.6057E-5	 2.5980E-5	 2.6130E-5	 2.6120E-5	 2.6000E-5	2.282258E-5	2.270874E-5	2.277700E-5	2.287693E-5	2.292766E-5	  -20.0160	   12.7565	    3.8621	  -28.7203	
  400.0000	 2.7352E-5	 2.7490E-5	 2.7380E-5	 2.7190E-5	 2.7350E-5	2.357701E-5	2.368066E-5	2.356334E-5	2.357590E-5	2.348816E-5	  -20.0084	   12.7338	    3.8852	  -28.6727	
  420.0000	 2.8775E-5	 2.8880E-5	 2.8790E-5	 2.8670E-5	 2.8760E-5	2.434088E-5	2.432341E-5	2.431014E-5	2.432418E-5	2.440577E-5	  -20.0135	   12.7171	    3.8836	  -28.6887	
  440.0000	 3.0377E-5	 3.0370E-5	 3.0360E-5	 3.0260E-5	 3.0520E-5	2.532484E-5	2.527404E-5	2.522781E-5	2.533271E-5	2.546480E-5	  -20.0211	   12.7282	    3.8833	  -28.6818	
  460.0000	 3.2310E-5	 3.2290E-5	 3.2260E-5	 3.2370E-5	 3.2320E-5	2.611458E-5	2.606369E-5	2.614687E-5	2.609383E-5	2.615391E-5	  -20.0237	   12.7075	    3.8953	  -28.6633	
  480.0000	 3.3970E-5	 3.3990E-5	 3.3910E-5	 3.3970E-5	 3.4010E-5	2.689394E-5	2.681860E-5	2.699014E-5	2.694182E-5	2.682522E-5	  -20.0211	   12.5975	    3.9048	  -28.7142	
  500.0000	 3.5485E-5	 3.5490E-5	 3.5450E-5	 3.5540E-5	 3.5460E-5	2.738296E-5	2.741200E-5	2.727997E-5	2.736102E-5	2.747884E-5	  -19.9931	   12.6018	    3.9130	  -28.6888	
  520.0000	 3.7048E-5	 3.6970E-5	 3.6990E-5	 3.7230E-5	 3.7000E-5	2.807383E-5	2.806635E-5	2.801873E-5	2.810105E-5	2.810919E-5	  -20.0033	   12.5517	    3.9216	  -28.7006	
  540.0000	 3.8473E-5	 3.8490E-5	 3.8400E-5	 3.8620E-5	 3.8380E-5	2.866837E-5	2.874771E-5	2.867768E-5	2.863420E-5	2.861389E-5	  -19.9880	   12.6600	    3.9039	  -28.6732	
  560.0000	 4.0045E-5	 4.0000E-5	 4.0110E-5	 4.0130E-5	 3.9940E-5	2.967440E-5	2.952046E-5	2.976600E-5	2.969815E-5	2.971297E-5	  -19.9830	   12.7057	    3.8947	  -28.6663	
  580.0000	 4.1353E-5	 4.1360E-5	 4.1280E-5	 4.1390E-5	 4.1380E-5	3.036477E-5	3.033040E-5	3.032419E-5	3.033050E-5	3.047400E-5	  -19.9804	   12.7032	    3.8966	  -28.6629	
  600.0000	 4.2885E-5	 4.2870E-5	 4.2850E-5	 4.2960E-5	 4.2860E-5	3.094046E-5	3.092060E-5	3.095929E-5	3.096167E-5	3.092028E-5	  -19.9804	   12.5695	    3.8941	  -28.7632	
  620.0000	 4.3920E-5	 4.3810E-5	 4.3860E-5	 4.4010E-5	 4.4000E-5	3.170888E-5	3.176483E-5	3.184079E-5	3.164161E-5	3.158829E-5	  -19.9779	   12.5414	    3.8880	  -28.7992	
  640.0000	 4.5425E-5	 4.5500E-5	 4.5350E-5	 4.5430E-5	 4.5420E-5	3.233728E-5	3.223414E-5	3.236993E-5	3.234420E-5	3.240087E-5	  -19.9855	   12.5037	    3.8827	  -28.8402	
  660.0000	 4.6877E-5	 4.6910E-5	 4.6960E-5	 4.6930E-5	 4.6710E-5	3.297181E-5	3.315561E-5	3.296284E-5	3.292237E-5	3.284641E-5	  -19.9804	   12.4835	    3.8643	  -28.9047	
  680.0000	 4.7868E-5	 4.7840E-5	 4.7640E-5	 4.7960E-5	 4.8030E-5	3.354315E-5	3.356988E-5	3.357952E-5	3.351375E-5	3.350944E-5	  -19.9753	   12.4021	    3.8444	  -29.0164	
  700.0000	 4.9457E-5	 4.9670E-5	 4.9430E-5	 4.9360E-5	 4.9370E-5	3.435222E-5	3.442552E-5	3.437098E-5	3.427461E-5	3.433776E-5	  -19.9804	   12.5890	    3.8242	  -28.9421	
  720.0000	 5.0403E-5	 5.0370E-5	 5.0350E-5	 5.0250E-5	 5.0640E-5	3.480465E-5	3.489693E-5	3.480680E-5	3.461587E-5	3.489899E-5	  -19.9830	   12.4780	    3.8121	  -29.0528	
  740.0000	 5.1812E-5	 5.1740E-5	 5.1840E-5	 5.1880E-5	 5.1790E-5	3.549956E-5	3.557574E-5	3.553007E-5	3.534341E-5	3.554900E-5	  -19.9753	   12.5869	    3.8039	  -28.9999	
  760.0000	 5.3082E-5	 5.3030E-5	 5.3090E-5	 5.3130E-5	 5.3080E-5	3.623219E-5	3.630246E-5	3.629519E-5	3.629187E-5	3.603926E-5	  -19.9830	   12.6186	    3.7938	  -29.0061	
  780.0000	 5.4228E-5	 5.4040E-5	 5.4520E-5	 5.4200E-5	 5.4150E-5	3.691050E-5	3.688127E-5	3.696404E-5	3.697314E-5	3.682355E-5	  -19.9626	   12.5892	    3.7717	  -29.0887	
  800.0000	 5.5303E-5	 5.5360E-5	 5.5280E-5	 5.5240E-5	 5.5330E-5	3.719362E-5	3.738741E-5	3.714450E-5	3.706397E-5	3.717861E-5	  -19.9601	   12.6513	    3.7631	  -29.0696	
  820.0000	 5.6285E-5	 5.6340E-5	 5.6240E-5	 5.6190E-5	 5.6370E-5	3.802569E-5	3.796023E-5	3.817988E-5	3.808333E-5	3.787931E-5	  -19.9855	   12.6572	    3.7622	  -29.0681	
  840.0000	 5.7730E-5	 5.7670E-5	 5.7550E-5	 5.7920E-5	 5.7780E-5	3.877352E-5	3.876133E-5	3.876500E-5	3.892695E-5	3.864081E-5	  -19.9906	   12.6410	    3.7505	  -29.1124	
  860.0000	 5.8960E-5	 5.8900E-5	 5.8760E-5	 5.9150E-5	 5.9030E-5	3.934503E-5	3.933051E-5	3.928758E-5	3.943230E-5	3.932972E-5	  -20.0160	   12.6438	    3.7473	  -29.1194	
  880.0000	 6.0142E-5	 5.9980E-5	 6.0060E-5	 6.0160E-5	 6.0370E-5	4.007882E-5	4.004503E-5	4.008360E-5	4.015609E-5	4.003055E-5	  -20.0186	   12.7498	    3.7625	  -29.0028	
  900.0000	 6.1457E-5	 6.1260E-5	 6.1460E-5	 6.1520E-5	 6.1590E-5	4.083298E-5	4.083651E-5	4.096923E-5	4.081707E-5	4.070912E-5	  -20.0135	   12.7295	    3.7669	  -29.0044	
  920.0000	 6.2947E-5	 6.2960E-5	 6.2910E-5	 6.2900E-5	 6.3020E-5	4.155307E-5	4.146172E-5	4.141219E-5	4.162348E-5	4.171490E-5	  -20.0109	   12.6954	    3.7669	  -29.0281	
  940.0000	 6.4353E-5	 6.4610E-5	 6.4300E-5	 6.4280E-5	 6.4220E-5	4.223540E-5	4.205830E-5	4.231265E-5	4.236599E-5	4.220467E-5	  -20.0237	   12.6216	    3.7688	  -29.0742	
  960.0000	 6.5638E-5	 6.5610E-5	 6.5470E-5	 6.5600E-5	 6.5870E-5	4.284458E-5	4.298149E-5	4.289154E-5	4.284666E-5	4.265863E-5	  -20.0135	   12.6216	    3.7679	  -29.0768	
  980.0000	 6.7125E-5	 6.7040E-5	 6.7400E-5	 6.6910E-5	 6.7150E-5	4.341886E-5	4.357565E-5	4.336274E-5	4.329754E-5	4.343952E-5	  -20.0059	   12.5902	    3.7770	  -29.0729	
 1000.0000	 6.8098E-5	 6.7960E-5	 6.8120E-5	 6.8170E-5	 6.8140E-5	4.407378E-5	4.415461E-5	4.414226E-5	4.396402E-5	4.403424E-5	  -20.0211	   12.5802	    3.7910	  -29.0409	
 1020.0000	 6.9445E-5	 6.9600E-5	 6.9420E-5	 6.9370E-5	 6.9390E-5	4.502544E-5	4.475185E-5	4.519704E-5	4.503787E-5	4.511499E-5	  -20.0287	   12.6711	    3.7808	  -29.0059	
 1040.0000	 7.1160E-5	 7.1450E-5	 7.1180E-5	 7.1080E-5	 7.0930E-5	4.556084E-5	4.560042E-5	4.569231E-5	4.550117E-5	4.544944E-5	  -20.0338	   12.4895	    3.7789	  -29.1376	
 1060.0000	 7.2598E-5	 7.2770E-5	 7.2540E-5	 7.2450E-5	 7.2630E-5	4.634803E-5	4.637696E-5	4.646300E-5	4.632952E-5	4.622263E-5	  -20.0364	   12.4660	    3.7704	  -29.1780	
 1080.0000	 7.3432E-5	 7.3440E-5	 7.3470E-5	 7.3370E-5	 7.3450E-5	4.685467E-5	4.678618E-5	4.677308E-5	4.686673E-5	4.699269E-5	  -20.0186	   12.3215	    3.7644	  -29.2955	
 1100.0000	 7.5332E-5	 7.5260E-5	 7.5310E-5	 7.5420E-5	 7.5340E-5	4.770387E-5	4.768152E-5	4.776701E-5	4.763300E-5	4.773395E-5	  -20.0211	   12.4785	    3.7448	  -29.2415	
