GCD Test
Bias: 5000.000000
IV_D0_CO142_LargeDiode_GRConnected_Irradiated_70min
Date/Time: 9/17/2021 3:17:23 PM
Sensor Name: CO142
Type: N
Annealing Status: Irradiated and Annealed at 60C for 70 min
Environment: -20C
Tester: Andrew Kent

Time Delay per Ramp Step (s): 0.500

CV Time Delay per Measurement (s) :0.500

AC Voltage (V): 0.500

Current Number of measurements per voltage: 4.000

IV Time Delay per Measurement (s) :0.000


BiasVoltage	Total Current_Avg	Total Current_0	Total Current_1	Total Current_2	Total Current_3	Bias Current_Avg	Bias Current_0	Bias Current_1	Bias Current_2	Bias Current_3	Temperature	Air_Temp	Humidity	Dewpoint	
    1.0000	 5.6343E-7	 5.6400E-7	 5.6310E-7	 5.6280E-7	 5.6380E-7	5.261754E-7	5.255045E-7	5.259297E-7	5.267065E-7	5.265609E-7	  -20.0186	    9.7955	    3.3283	  -32.3308	
    2.0000	 9.1527E-7	 9.1600E-7	 9.1510E-7	 9.1390E-7	 9.1610E-7	8.394547E-7	8.399707E-7	8.386141E-7	8.402422E-7	8.389918E-7	  -20.0084	    9.8041	    3.3264	  -32.3307	
    3.0000	 1.1245E-6	 1.1210E-6	 1.1260E-6	 1.1280E-6	 1.1230E-6	1.028381E-6	1.030283E-6	1.027193E-6	1.025735E-6	1.030314E-6	  -20.0059	    9.7434	    3.3131	  -32.4137	
    4.0000	 1.2967E-6	 1.2970E-6	 1.2960E-6	 1.2970E-6	 1.2970E-6	1.185930E-6	1.185364E-6	1.182807E-6	1.185518E-6	1.190030E-6	  -20.0211	    9.8139	    3.3223	  -32.3366	
    5.0000	 1.4572E-6	 1.4550E-6	 1.4580E-6	 1.4570E-6	 1.4590E-6	1.335851E-6	1.336345E-6	1.339680E-6	1.337058E-6	1.330321E-6	  -20.0237	    9.7258	    3.2948	  -32.4829	
    6.0000	 1.6017E-6	 1.6030E-6	 1.6030E-6	 1.6040E-6	 1.5970E-6	1.461792E-6	1.465348E-6	1.462343E-6	1.460900E-6	1.458577E-6	  -20.0109	    9.6316	    3.2793	  -32.5961	
    7.0000	 1.7337E-6	 1.7320E-6	 1.7390E-6	 1.7370E-6	 1.7270E-6	1.573906E-6	1.580777E-6	1.572799E-6	1.572359E-6	1.569690E-6	  -20.0109	    9.5013	    3.2849	  -32.6682	
    8.0000	 1.8545E-6	 1.8610E-6	 1.8540E-6	 1.8540E-6	 1.8490E-6	1.685031E-6	1.684476E-6	1.683775E-6	1.686810E-6	1.685064E-6	  -20.0262	    9.5999	    3.2878	  -32.5913	
    9.0000	 1.9805E-6	 1.9800E-6	 1.9820E-6	 1.9830E-6	 1.9770E-6	1.800273E-6	1.802153E-6	1.794483E-6	1.796976E-6	1.807481E-6	  -20.0160	    9.5899	    3.2913	  -32.5874	
   10.0000	 2.0875E-6	 2.0910E-6	 2.0850E-6	 2.0840E-6	 2.0900E-6	1.900711E-6	1.900172E-6	1.898918E-6	1.900638E-6	1.903118E-6	  -19.9982	    9.5762	    3.2742	  -32.6501	
   20.0000	 3.0285E-6	 3.0150E-6	 3.0180E-6	 3.0450E-6	 3.0360E-6	2.758848E-6	2.759425E-6	2.766292E-6	2.757510E-6	2.752164E-6	  -20.0008	    9.5506	    3.2720	  -32.6747	
   30.0000	 3.8172E-6	 3.8060E-6	 3.8290E-6	 3.8190E-6	 3.8150E-6	3.439553E-6	3.446645E-6	3.436256E-6	3.431463E-6	3.443849E-6	  -20.0059	    9.7012	    3.2761	  -32.5581	
   40.0000	 4.5090E-6	 4.5150E-6	 4.5080E-6	 4.5120E-6	 4.5010E-6	4.035635E-6	4.037007E-6	4.033353E-6	4.039538E-6	4.032641E-6	  -19.9906	    9.7206	    3.2438	  -32.6462	
   50.0000	 5.1627E-6	 5.1840E-6	 5.1450E-6	 5.1500E-6	 5.1720E-6	4.589776E-6	4.581626E-6	4.581314E-6	4.607632E-6	4.588533E-6	  -19.9931	    9.7206	    3.2283	  -32.6953	
   60.0000	 5.7683E-6	 5.7500E-6	 5.7710E-6	 5.7790E-6	 5.7730E-6	5.096797E-6	5.103331E-6	5.113382E-6	5.090947E-6	5.079528E-6	  -19.9931	    9.7119	    3.2173	  -32.7364	
   70.0000	 6.3112E-6	 6.3020E-6	 6.3310E-6	 6.3040E-6	 6.3080E-6	5.592433E-6	5.583683E-6	5.578472E-6	5.604076E-6	5.603500E-6	  -19.9830	    9.6968	    3.2207	  -32.7358	
   80.0000	 6.8530E-6	 6.8490E-6	 6.8530E-6	 6.8500E-6	 6.8600E-6	6.027957E-6	6.034432E-6	6.001844E-6	6.029564E-6	6.045990E-6	  -19.9906	    9.8109	    3.2188	  -32.6633	
   90.0000	 7.3642E-6	 7.4130E-6	 7.3840E-6	 7.3420E-6	 7.3180E-6	6.431068E-6	6.440458E-6	6.429364E-6	6.425316E-6	6.429132E-6	  -19.9906	    9.8685	    3.2404	  -32.5555	
  100.0000	 7.8580E-6	 7.8520E-6	 7.8580E-6	 7.8630E-6	 7.8590E-6	6.895791E-6	6.903193E-6	6.910442E-6	6.896170E-6	6.873358E-6	  -20.0033	    9.8685	    3.2600	  -32.4936	
  120.0000	 8.7695E-6	 8.7280E-6	 8.7460E-6	 8.8040E-6	 8.8000E-6	7.666899E-6	7.683854E-6	7.657351E-6	7.649131E-6	7.677260E-6	  -19.9880	    9.8294	    3.2657	  -32.5025	
  140.0000	 1.0004E-5	 9.8400E-6	 9.9770E-6	 1.0035E-5	 1.0162E-5	8.415046E-6	8.439441E-6	8.420169E-6	8.391051E-6	8.409524E-6	  -19.9804	    9.7573	    3.2584	  -32.5751	
  160.0000	 1.3218E-5	 1.2760E-5	 1.3140E-5	 1.3370E-5	 1.3600E-5	9.029428E-6	9.028603E-6	9.023342E-6	9.005870E-6	9.059898E-6	  -20.0008	    9.7236	    3.2511	  -32.6212	
  180.0000	 1.7682E-5	 1.7360E-5	 1.7620E-5	 1.7810E-5	 1.7940E-5	9.548594E-6	9.539312E-6	9.564031E-6	9.551218E-6	9.539816E-6	  -19.9804	    9.7187	    3.2891	  -32.5055	
  200.0000	 2.1537E-5	 2.1370E-5	 2.1450E-5	 2.1570E-5	 2.1760E-5	1.006951E-5	1.009817E-5	1.007268E-5	1.006412E-5	1.004307E-5	  -19.9906	    9.7187	    3.2985	  -32.4759	
  220.0000	 2.5030E-5	 2.4950E-5	 2.4960E-5	 2.5010E-5	 2.5200E-5	1.057354E-5	1.061169E-5	1.060164E-5	1.055441E-5	1.052643E-5	  -19.9880	    9.7766	    3.3093	  -32.4026	
  240.0000	 2.8250E-5	 2.8200E-5	 2.8300E-5	 2.8300E-5	 2.8200E-5	1.098501E-5	1.098192E-5	1.100825E-5	1.097788E-5	1.097198E-5	  -19.9779	    9.6827	    3.3096	  -32.4663	
  260.0000	 3.1295E-5	 3.1120E-5	 3.1190E-5	 3.1410E-5	 3.1460E-5	1.145548E-5	1.148725E-5	1.144568E-5	1.145793E-5	1.143108E-5	  -19.9982	    9.6853	    3.3055	  -32.4773	
  280.0000	 3.4305E-5	 3.4220E-5	 3.4300E-5	 3.4340E-5	 3.4360E-5	1.196220E-5	1.200657E-5	1.195333E-5	1.196481E-5	1.192411E-5	  -20.0084	    9.7143	    3.2935	  -32.4947	
  300.0000	 3.7035E-5	 3.7050E-5	 3.7080E-5	 3.6900E-5	 3.7110E-5	1.236555E-5	1.237761E-5	1.232673E-5	1.235827E-5	1.239959E-5	  -19.9982	    9.6603	    3.2951	  -32.5270	
  320.0000	 3.9670E-5	 3.9670E-5	 3.9630E-5	 3.9780E-5	 3.9600E-5	1.279629E-5	1.274683E-5	1.285329E-5	1.278389E-5	1.280116E-5	  -20.0059	    9.7035	    3.2849	  -32.5288	
  340.0000	 4.2440E-5	 4.2410E-5	 4.2390E-5	 4.2470E-5	 4.2490E-5	1.325485E-5	1.327818E-5	1.329697E-5	1.323527E-5	1.320897E-5	  -20.0033	    9.8322	    3.2919	  -32.4184	
  360.0000	 4.4878E-5	 4.4880E-5	 4.4900E-5	 4.4830E-5	 4.4900E-5	1.369027E-5	1.370619E-5	1.372872E-5	1.367917E-5	1.364699E-5	  -19.9957	    9.8482	    3.2941	  -32.4005	
  380.0000	 4.7402E-5	 4.7290E-5	 4.7390E-5	 4.7540E-5	 4.7390E-5	1.407778E-5	1.411152E-5	1.408986E-5	1.402375E-5	1.408599E-5	  -20.0008	    9.8205	    3.2922	  -32.4255	
  400.0000	 4.9825E-5	 4.9770E-5	 4.9810E-5	 4.9780E-5	 4.9940E-5	1.446058E-5	1.446466E-5	1.449159E-5	1.446428E-5	1.442179E-5	  -20.0160	    9.7671	    3.2732	  -32.5216	
  420.0000	 5.2158E-5	 5.2040E-5	 5.2050E-5	 5.2360E-5	 5.2180E-5	1.486290E-5	1.483286E-5	1.487792E-5	1.486987E-5	1.487093E-5	  -20.0262	    9.7176	    3.2615	  -32.5925	
  440.0000	 5.4472E-5	 5.4620E-5	 5.4300E-5	 5.4400E-5	 5.4570E-5	1.524912E-5	1.523679E-5	1.525801E-5	1.526665E-5	1.523503E-5	  -20.0186	    9.6657	    3.2650	  -32.6173	
  460.0000	 5.6740E-5	 5.6720E-5	 5.6660E-5	 5.6700E-5	 5.6880E-5	1.572148E-5	1.567194E-5	1.576098E-5	1.575000E-5	1.570298E-5	  -20.0109	    9.7430	    3.2568	  -32.5899	
  480.0000	 5.9058E-5	 5.8950E-5	 5.9030E-5	 5.9130E-5	 5.9120E-5	1.604036E-5	1.601096E-5	1.604768E-5	1.603571E-5	1.606709E-5	  -20.0211	    9.7570	    3.2502	  -32.6012	
  500.0000	 6.1428E-5	 6.1430E-5	 6.1540E-5	 6.1420E-5	 6.1320E-5	1.649304E-5	1.646431E-5	1.652294E-5	1.655246E-5	1.643243E-5	  -20.0262	    9.8645	    3.2549	  -32.5122	
  520.0000	 6.3500E-5	 6.3400E-5	 6.3620E-5	 6.3550E-5	 6.3430E-5	1.685202E-5	1.681864E-5	1.681278E-5	1.688909E-5	1.688755E-5	  -20.0160	    9.8066	    3.2511	  -32.5641	
  540.0000	 6.5870E-5	 6.5640E-5	 6.5800E-5	 6.6000E-5	 6.6040E-5	1.730987E-5	1.729679E-5	1.729172E-5	1.733969E-5	1.731128E-5	  -20.0186	    9.7257	    3.2435	  -32.6437	
  560.0000	 6.7985E-5	 6.7750E-5	 6.7950E-5	 6.8180E-5	 6.8060E-5	1.755977E-5	1.758656E-5	1.756900E-5	1.757062E-5	1.751289E-5	  -20.0008	    9.7027	    3.2495	  -32.6406	
  580.0000	 7.0040E-5	 7.0060E-5	 7.0150E-5	 6.9910E-5	 7.0040E-5	1.788053E-5	1.787145E-5	1.786619E-5	1.784113E-5	1.794334E-5	  -20.0084	    9.7748	    3.2448	  -32.6059	
  600.0000	 7.2160E-5	 7.2150E-5	 7.2130E-5	 7.2110E-5	 7.2250E-5	1.833852E-5	1.835308E-5	1.841471E-5	1.831120E-5	1.827510E-5	  -20.0109	    9.7942	    3.2296	  -32.6407	
  620.0000	 7.4183E-5	 7.4090E-5	 7.4350E-5	 7.4190E-5	 7.4100E-5	1.866368E-5	1.869269E-5	1.865967E-5	1.865111E-5	1.865126E-5	  -19.9957	    9.8516	    3.2388	  -32.5720	
  640.0000	 7.6122E-5	 7.6380E-5	 7.6010E-5	 7.5890E-5	 7.6210E-5	1.892480E-5	1.890898E-5	1.889505E-5	1.891264E-5	1.898254E-5	  -19.9931	    9.7537	    3.2388	  -32.6394	
  660.0000	 7.8315E-5	 7.8300E-5	 7.8270E-5	 7.8640E-5	 7.8050E-5	1.928583E-5	1.923252E-5	1.936787E-5	1.925779E-5	1.928515E-5	  -19.9855	    9.7457	    3.2334	  -32.6620	
  680.0000	 8.0475E-5	 8.0300E-5	 8.0580E-5	 8.0520E-5	 8.0500E-5	1.968346E-5	1.977986E-5	1.969391E-5	1.964015E-5	1.961991E-5	  -19.9728	    9.7678	    3.2492	  -32.5968	
  700.0000	 8.2248E-5	 8.2170E-5	 8.1860E-5	 8.2280E-5	 8.2680E-5	2.000348E-5	2.007219E-5	2.003619E-5	1.997412E-5	1.993140E-5	  -19.9677	    9.7491	    3.2524	  -32.5996	
  720.0000	 8.4482E-5	 8.4340E-5	 8.4450E-5	 8.4590E-5	 8.4550E-5	2.028696E-5	2.034765E-5	2.033915E-5	2.023849E-5	2.022255E-5	  -19.9677	    9.8240	    3.2761	  -32.4735	
  740.0000	 8.6217E-5	 8.6040E-5	 8.6160E-5	 8.6060E-5	 8.6610E-5	2.055994E-5	2.055501E-5	2.054014E-5	2.058493E-5	2.055968E-5	  -19.9677	    9.7967	    3.3023	  -32.4103	
  760.0000	 8.8050E-5	 8.8120E-5	 8.7870E-5	 8.8060E-5	 8.8150E-5	2.088214E-5	2.083472E-5	2.098582E-5	2.086807E-5	2.083996E-5	  -19.9728	    9.6608	    3.3080	  -32.4864	
  780.0000	 9.0153E-5	 9.0130E-5	 9.0400E-5	 9.0000E-5	 9.0080E-5	2.110249E-5	2.118618E-5	2.115579E-5	2.101991E-5	2.104810E-5	  -19.9855	    9.6629	    3.3270	  -32.4262	
  800.0000	 9.2125E-5	 9.1980E-5	 9.2150E-5	 9.2360E-5	 9.2010E-5	2.140938E-5	2.135667E-5	2.139368E-5	2.145678E-5	2.143038E-5	  -20.0059	    9.7235	    3.3435	  -32.3336	
  820.0000	 9.4135E-5	 9.4430E-5	 9.4120E-5	 9.4030E-5	 9.3960E-5	2.169107E-5	2.167965E-5	2.171825E-5	2.171392E-5	2.165245E-5	  -19.9906	    9.7235	    3.3393	  -32.3463	
  840.0000	 9.6107E-5	 9.6240E-5	 9.5700E-5	 9.5930E-5	 9.6560E-5	2.202927E-5	2.206301E-5	2.202196E-5	2.205002E-5	2.198208E-5	  -19.9982	    9.6749	    3.3289	  -32.4120	
  860.0000	 9.8175E-5	 9.8170E-5	 9.8180E-5	 9.8060E-5	 9.8290E-5	2.221177E-5	2.233940E-5	2.222088E-5	2.219397E-5	2.209284E-5	  -19.9957	    9.6391	    3.3102	  -32.4945	
  880.0000	 1.0014E-4	 1.0011E-4	 1.0024E-4	 1.0015E-4	 1.0006E-4	2.256989E-5	2.249875E-5	2.257937E-5	2.260737E-5	2.259406E-5	  -20.0008	    9.6093	    3.2887	  -32.5819	
  900.0000	 1.0210E-4	 1.0240E-4	 1.0210E-4	 1.0180E-4	 1.0210E-4	2.282021E-5	2.271556E-5	2.280527E-5	2.290372E-5	2.285630E-5	  -19.9982	    9.5909	    3.2755	  -32.6360	
  920.0000	 1.0397E-4	 1.0380E-4	 1.0390E-4	 1.0390E-4	 1.0430E-4	2.312729E-5	2.323761E-5	2.314611E-5	2.306556E-5	2.305989E-5	  -19.9906	    9.6280	    3.2457	  -32.7040	
  940.0000	 1.0622E-4	 1.0590E-4	 1.0630E-4	 1.0650E-4	 1.0620E-4	2.337519E-5	2.336997E-5	2.343058E-5	2.339199E-5	2.330823E-5	  -20.0033	    9.6280	    3.2201	  -32.7851	
  960.0000	 1.0812E-4	 1.0830E-4	 1.0820E-4	 1.0810E-4	 1.0790E-4	2.352859E-5	2.354725E-5	2.351383E-5	2.350759E-5	2.354568E-5	  -20.0008	    9.6349	    3.2075	  -32.8206	
  980.0000	 1.1040E-4	 1.1060E-4	 1.1040E-4	 1.1030E-4	 1.1030E-4	2.387806E-5	2.392752E-5	2.389969E-5	2.385548E-5	2.382955E-5	  -19.9855	    9.6505	    3.1774	  -32.9062	
 1000.0000	 1.1238E-4	 1.1230E-4	 1.1230E-4	 1.1240E-4	 1.1250E-4	2.410116E-5	2.413851E-5	2.409630E-5	2.407559E-5	2.409422E-5	  -19.9906	    9.5757	    3.1768	  -32.9596	
 1020.0000	 1.1478E-4	 1.1480E-4	 1.1470E-4	 1.1510E-4	 1.1450E-4	2.429931E-5	2.423676E-5	2.427847E-5	2.435482E-5	2.432721E-5	  -19.9880	    9.6118	    3.1626	  -32.9807	
 1040.0000	 1.1665E-4	 1.1650E-4	 1.1690E-4	 1.1680E-4	 1.1640E-4	2.462602E-5	2.454962E-5	2.464538E-5	2.459541E-5	2.471366E-5	  -20.0008	    9.7244	    3.1284	  -33.0144	
 1060.0000	 1.1890E-4	 1.1900E-4	 1.1910E-4	 1.1880E-4	 1.1870E-4	2.483021E-5	2.482015E-5	2.479498E-5	2.481789E-5	2.488782E-5	  -20.0033	    9.7244	    3.1284	  -33.0144	
 1080.0000	 1.2148E-4	 1.2110E-4	 1.2150E-4	 1.2150E-4	 1.2180E-4	2.511775E-5	2.510392E-5	2.513838E-5	2.516430E-5	2.506442E-5	  -20.0008	    9.7281	    3.1312	  -33.0025	
 1100.0000	 1.2365E-4	 1.2350E-4	 1.2390E-4	 1.2330E-4	 1.2390E-4	2.527691E-5	2.535802E-5	2.532548E-5	2.525429E-5	2.516983E-5	  -19.9906	    9.7751	    3.1360	  -32.9549	
