GCD Test
Bias: 5000.000000
IV_D0_CO145_LargeDiode_GRConnected_Irradiated_70min
Date/Time: 9/17/2021 5:13:56 PM
Sensor Name: CO145
Type: N
Annealing Status: Irradiated and Annealed at 60C for 70 min
Environment: -20C
Tester: Andrew Kent

Time Delay per Ramp Step (s): 0.500

CV Time Delay per Measurement (s) :0.500

AC Voltage (V): 0.500

Current Number of measurements per voltage: 4.000

IV Time Delay per Measurement (s) :0.000


BiasVoltage	Total Current_Avg	Total Current_0	Total Current_1	Total Current_2	Total Current_3	Bias Current_Avg	Bias Current_0	Bias Current_1	Bias Current_2	Bias Current_3	Temperature	Air_Temp	Humidity	Dewpoint	
    1.0000	 5.4943E-7	 5.4750E-7	 5.5040E-7	 5.4930E-7	 5.5050E-7	5.156695E-7	5.150967E-7	5.161033E-7	5.166364E-7	5.148415E-7	  -20.0822	   12.7315	    4.7625	  -26.4833	
    2.0000	 1.0203E-6	 1.0200E-6	 1.0220E-6	 1.0190E-6	 1.0200E-6	9.530330E-7	9.528320E-7	9.538584E-7	9.525008E-7	9.529408E-7	  -20.0745	   12.6282	    4.7160	  -26.6635	
    3.0000	 1.3170E-6	 1.3180E-6	 1.3150E-6	 1.3140E-6	 1.3210E-6	1.236953E-6	1.242291E-6	1.236898E-6	1.237201E-6	1.231421E-6	  -20.0644	   12.6282	    4.6901	  -26.7233	
    4.0000	 1.5375E-6	 1.5350E-6	 1.5380E-6	 1.5400E-6	 1.5370E-6	1.438550E-6	1.442595E-6	1.438635E-6	1.438354E-6	1.434615E-6	  -20.0491	   12.6374	    4.6853	  -26.7277	
    5.0000	 1.7305E-6	 1.7280E-6	 1.7270E-6	 1.7320E-6	 1.7350E-6	1.621635E-6	1.625741E-6	1.620838E-6	1.621146E-6	1.618813E-6	  -20.0287	   12.7432	    4.6812	  -26.6620	
    6.0000	 1.9095E-6	 1.9120E-6	 1.9080E-6	 1.9040E-6	 1.9140E-6	1.791753E-6	1.789947E-6	1.792213E-6	1.791534E-6	1.793317E-6	  -20.0313	   12.7005	    4.6689	  -26.7210	
    7.0000	 2.0800E-6	 2.0790E-6	 2.0830E-6	 2.0830E-6	 2.0750E-6	1.938046E-6	1.935953E-6	1.935232E-6	1.940913E-6	1.940084E-6	  -20.0389	   12.6483	    4.6917	  -26.7054	
    8.0000	 2.2215E-6	 2.2240E-6	 2.2210E-6	 2.2180E-6	 2.2230E-6	2.077746E-6	2.072974E-6	2.081386E-6	2.076975E-6	2.079650E-6	  -20.0237	   12.6284	    4.7445	  -26.5980	
    9.0000	 2.3853E-6	 2.3820E-6	 2.3850E-6	 2.3870E-6	 2.3870E-6	2.221686E-6	2.222009E-6	2.218335E-6	2.223284E-6	2.223116E-6	  -20.0364	   12.6905	    4.7483	  -26.5450	
   10.0000	 2.5282E-6	 2.5280E-6	 2.5300E-6	 2.5290E-6	 2.5260E-6	2.363129E-6	2.364731E-6	2.357400E-6	2.364099E-6	2.366286E-6	  -20.0491	   12.6611	    4.7555	  -26.5494	
   20.0000	 3.7473E-6	 3.7430E-6	 3.7490E-6	 3.7450E-6	 3.7520E-6	3.482244E-6	3.489407E-6	3.482930E-6	3.480507E-6	3.476132E-6	  -20.0262	   12.7026	    4.7774	  -26.4700	
   30.0000	 4.7740E-6	 4.7720E-6	 4.7660E-6	 4.7730E-6	 4.7850E-6	4.415760E-6	4.434835E-6	4.423488E-6	4.404267E-6	4.400452E-6	  -20.0084	   12.6387	    4.7732	  -26.5249	
   40.0000	 5.6898E-6	 5.6730E-6	 5.6890E-6	 5.7020E-6	 5.6950E-6	5.233151E-6	5.241105E-6	5.233774E-6	5.230419E-6	5.227304E-6	  -20.0084	   12.6245	    4.7729	  -26.5358	
   50.0000	 6.5660E-6	 6.5550E-6	 6.5910E-6	 6.5690E-6	 6.5490E-6	6.006329E-6	5.983816E-6	6.001285E-6	6.011779E-6	6.028437E-6	  -19.9830	   12.6537	    4.8140	  -26.4217	
   60.0000	 7.3975E-6	 7.3860E-6	 7.3870E-6	 7.4170E-6	 7.4000E-6	6.750560E-6	6.739318E-6	6.746702E-6	6.767000E-6	6.749221E-6	  -19.9982	   12.6645	    4.8428	  -26.3491	
   70.0000	 8.1747E-6	 8.1430E-6	 8.1890E-6	 8.1980E-6	 8.1690E-6	7.413098E-6	7.400989E-6	7.411917E-6	7.424775E-6	7.414711E-6	  -19.9906	   12.6645	    4.8953	  -26.2317	
   80.0000	 8.9187E-6	 8.9090E-6	 8.9080E-6	 8.9440E-6	 8.9140E-6	8.066572E-6	8.076855E-6	8.073866E-6	8.071378E-6	8.044189E-6	  -19.9982	   12.6180	    4.9016	  -26.2508	
   90.0000	 9.5960E-6	 9.6030E-6	 9.5970E-6	 9.5750E-6	 9.6090E-6	8.658543E-6	8.670208E-6	8.660809E-6	8.652350E-6	8.650803E-6	  -20.0059	   12.6528	    4.9908	  -26.0293	
  100.0000	 1.0253E-5	 1.0250E-5	 1.0240E-5	 1.0270E-5	 1.0250E-5	9.272363E-6	9.272431E-6	9.261695E-6	9.256409E-6	9.298916E-6	  -19.9906	   12.6558	    5.0449	  -25.9093	
  120.0000	 1.1510E-5	 1.1500E-5	 1.1520E-5	 1.1500E-5	 1.1520E-5	1.042268E-5	1.041098E-5	1.044680E-5	1.041121E-5	1.042173E-5	  -19.9677	   12.5891	    5.0560	  -25.9332	
  140.0000	 1.2768E-5	 1.2760E-5	 1.2770E-5	 1.2770E-5	 1.2770E-5	1.150945E-5	1.147660E-5	1.151312E-5	1.154669E-5	1.150140E-5	  -19.9499	   12.5745	    5.0797	  -25.8925	
  160.0000	 1.3960E-5	 1.4000E-5	 1.3940E-5	 1.3940E-5	 1.3960E-5	1.250985E-5	1.254065E-5	1.251951E-5	1.249663E-5	1.248261E-5	  -19.9372	   12.6334	    5.0946	  -25.8183	
  180.0000	 1.5007E-5	 1.5000E-5	 1.5010E-5	 1.4990E-5	 1.5030E-5	1.353652E-5	1.355247E-5	1.349678E-5	1.352596E-5	1.357087E-5	  -19.9270	   12.6417	    5.1309	  -25.7344	
  200.0000	 1.6162E-5	 1.6180E-5	 1.6150E-5	 1.6160E-5	 1.6160E-5	1.445071E-5	1.440985E-5	1.444858E-5	1.447847E-5	1.446592E-5	  -19.9499	   12.6701	    5.1550	  -25.6629	
  220.0000	 1.7147E-5	 1.7090E-5	 1.7180E-5	 1.7160E-5	 1.7160E-5	1.540576E-5	1.540386E-5	1.544925E-5	1.541752E-5	1.535239E-5	  -19.9524	   12.7184	    5.1632	  -25.6107	
  240.0000	 1.8143E-5	 1.8150E-5	 1.8150E-5	 1.8150E-5	 1.8120E-5	1.624129E-5	1.622195E-5	1.623853E-5	1.625340E-5	1.625128E-5	  -19.9270	   12.6728	    5.1781	  -25.6119	
  260.0000	 1.9085E-5	 1.9040E-5	 1.9060E-5	 1.9090E-5	 1.9150E-5	1.710403E-5	1.715319E-5	1.708730E-5	1.708233E-5	1.709332E-5	  -19.9372	   12.5956	    5.1834	  -25.6560	
  280.0000	 2.0093E-5	 2.0100E-5	 2.0020E-5	 2.0090E-5	 2.0160E-5	1.796360E-5	1.797750E-5	1.797581E-5	1.794689E-5	1.795421E-5	  -19.9448	   12.6327	    5.1550	  -25.6898	
  300.0000	 2.1072E-5	 2.1070E-5	 2.1090E-5	 2.1100E-5	 2.1030E-5	1.876765E-5	1.873989E-5	1.874660E-5	1.876519E-5	1.881892E-5	  -19.9397	   12.6093	    5.1575	  -25.7012	
  320.0000	 2.1985E-5	 2.1960E-5	 2.1950E-5	 2.1960E-5	 2.2070E-5	1.963444E-5	1.973928E-5	1.964676E-5	1.958164E-5	1.957008E-5	  -19.9448	   12.6247	    5.1205	  -25.7690	
  340.0000	 2.2922E-5	 2.2890E-5	 2.2930E-5	 2.2930E-5	 2.2940E-5	2.034051E-5	2.035561E-5	2.032285E-5	2.032123E-5	2.036236E-5	  -19.9931	   12.5873	    5.0952	  -25.8500	
  360.0000	 2.3848E-5	 2.3900E-5	 2.3840E-5	 2.3860E-5	 2.3790E-5	2.112796E-5	2.114657E-5	2.108068E-5	2.111727E-5	2.116731E-5	  -20.0160	   12.5685	    5.1009	  -25.8513	
  380.0000	 2.4940E-5	 2.4900E-5	 2.4930E-5	 2.4910E-5	 2.5020E-5	2.203614E-5	2.206929E-5	2.204036E-5	2.206862E-5	2.196630E-5	  -20.0160	   12.6049	    5.1116	  -25.8021	
  400.0000	 2.6117E-5	 2.6190E-5	 2.6100E-5	 2.6130E-5	 2.6050E-5	2.260678E-5	2.263073E-5	2.257954E-5	2.259737E-5	2.261949E-5	  -20.0287	   12.5740	    5.0721	  -25.9092	
  420.0000	 2.7317E-5	 2.7300E-5	 2.7330E-5	 2.7300E-5	 2.7340E-5	2.330940E-5	2.328216E-5	2.334074E-5	2.331817E-5	2.329651E-5	  -20.0237	   12.5714	    5.0563	  -25.9452	
  440.0000	 2.8752E-5	 2.8660E-5	 2.8760E-5	 2.8840E-5	 2.8750E-5	2.411042E-5	2.421283E-5	2.408917E-5	2.406740E-5	2.407228E-5	  -20.0160	   12.5264	    5.0503	  -25.9905	
  460.0000	 3.0373E-5	 3.0390E-5	 3.0230E-5	 3.0470E-5	 3.0400E-5	2.474976E-5	2.479658E-5	2.468643E-5	2.473991E-5	2.477612E-5	  -20.0338	   12.5382	    5.0380	  -26.0087	
  480.0000	 3.1958E-5	 3.1940E-5	 3.2020E-5	 3.1930E-5	 3.1940E-5	2.547224E-5	2.555509E-5	2.544374E-5	2.544817E-5	2.544197E-5	  -20.0415	   12.5382	    5.0421	  -25.9998	
  500.0000	 3.3452E-5	 3.3550E-5	 3.3480E-5	 3.3370E-5	 3.3410E-5	2.616796E-5	2.613986E-5	2.615792E-5	2.615783E-5	2.621624E-5	  -20.0542	   12.5383	    5.0547	  -25.9724	
  520.0000	 3.4940E-5	 3.5000E-5	 3.4980E-5	 3.4950E-5	 3.4830E-5	2.687270E-5	2.676415E-5	2.677812E-5	2.695896E-5	2.698959E-5	  -20.0644	   12.5629	    5.0743	  -25.9124	
  540.0000	 3.6347E-5	 3.6220E-5	 3.6390E-5	 3.6380E-5	 3.6400E-5	2.749534E-5	2.747343E-5	2.749113E-5	2.752959E-5	2.748722E-5	  -20.0593	   12.5016	    5.0810	  -25.9421	
  560.0000	 3.7805E-5	 3.7780E-5	 3.7840E-5	 3.7890E-5	 3.7710E-5	2.819321E-5	2.823621E-5	2.826647E-5	2.819501E-5	2.807514E-5	  -20.0618	   12.5151	    5.0857	  -25.9222	
  580.0000	 3.9025E-5	 3.9080E-5	 3.8990E-5	 3.9000E-5	 3.9030E-5	2.881514E-5	2.883123E-5	2.891325E-5	2.876207E-5	2.875402E-5	  -20.0694	   12.5339	    5.0952	  -25.8883	
  600.0000	 4.0510E-5	 4.0590E-5	 4.0440E-5	 4.0560E-5	 4.0450E-5	2.945666E-5	2.948379E-5	2.948111E-5	2.945280E-5	2.940894E-5	  -20.0567	   12.5052	    5.0980	  -25.9028	
  620.0000	 4.1650E-5	 4.1670E-5	 4.1730E-5	 4.1490E-5	 4.1710E-5	3.010487E-5	3.015253E-5	3.006334E-5	3.009457E-5	3.010903E-5	  -20.0415	   12.5360	    5.0838	  -25.9112	
  640.0000	 4.2977E-5	 4.2910E-5	 4.2980E-5	 4.2990E-5	 4.3030E-5	3.092057E-5	3.085909E-5	3.087178E-5	3.094085E-5	3.101056E-5	  -20.0440	   12.4668	    5.0693	  -25.9923	
  660.0000	 4.4168E-5	 4.4270E-5	 4.4180E-5	 4.4130E-5	 4.4090E-5	3.130267E-5	3.126020E-5	3.128602E-5	3.133031E-5	3.133416E-5	  -20.0465	   12.4877	    5.0756	  -25.9637	
  680.0000	 4.5485E-5	 4.5290E-5	 4.5460E-5	 4.5580E-5	 4.5610E-5	3.198885E-5	3.196816E-5	3.197256E-5	3.196897E-5	3.204572E-5	  -19.9906	   12.4562	    5.0500	  -26.0415	
  700.0000	 4.6700E-5	 4.6750E-5	 4.6650E-5	 4.6700E-5	 4.6700E-5	3.274059E-5	3.270342E-5	3.275738E-5	3.269729E-5	3.280428E-5	  -19.9906	   12.4700	    5.0468	  -26.0384	
  720.0000	 4.8008E-5	 4.8010E-5	 4.7900E-5	 4.8030E-5	 4.8090E-5	3.336115E-5	3.342863E-5	3.330079E-5	3.333357E-5	3.338163E-5	  -20.0059	   12.4715	    5.0398	  -26.0524	
  740.0000	 4.8983E-5	 4.9070E-5	 4.8970E-5	 4.9020E-5	 4.8870E-5	3.385332E-5	3.390839E-5	3.391710E-5	3.380839E-5	3.377942E-5	  -19.9957	   12.5653	    5.0380	  -25.9893	
  760.0000	 5.0193E-5	 5.0210E-5	 5.0130E-5	 5.0170E-5	 5.0260E-5	3.452990E-5	3.450687E-5	3.451750E-5	3.448871E-5	3.460652E-5	  -19.9779	   12.5778	    5.0617	  -25.9290	
  780.0000	 5.1430E-5	 5.1450E-5	 5.1340E-5	 5.1510E-5	 5.1420E-5	3.510016E-5	3.514189E-5	3.516153E-5	3.509908E-5	3.499813E-5	  -19.9677	   12.5224	    5.0816	  -25.9258	
  800.0000	 5.2795E-5	 5.2690E-5	 5.2840E-5	 5.2920E-5	 5.2730E-5	3.580305E-5	3.579665E-5	3.578573E-5	3.572671E-5	3.590311E-5	  -19.9779	   12.5509	    5.1025	  -25.8605	
  820.0000	 5.3947E-5	 5.4040E-5	 5.4070E-5	 5.3850E-5	 5.3830E-5	3.651428E-5	3.637845E-5	3.651812E-5	3.664908E-5	3.651146E-5	  -19.9804	   12.4548	    5.0904	  -25.9553	
  840.0000	 5.5162E-5	 5.5150E-5	 5.5160E-5	 5.5200E-5	 5.5140E-5	3.702315E-5	3.692790E-5	3.708713E-5	3.709767E-5	3.697988E-5	  -19.9779	   12.4848	    5.0965	  -25.9209	
  860.0000	 5.6567E-5	 5.6490E-5	 5.6520E-5	 5.6650E-5	 5.6610E-5	3.777882E-5	3.782221E-5	3.782201E-5	3.773379E-5	3.773726E-5	  -19.9906	   12.4623	    5.1075	  -25.9133	
  880.0000	 5.7540E-5	 5.7620E-5	 5.7550E-5	 5.7410E-5	 5.7580E-5	3.837041E-5	3.845572E-5	3.841682E-5	3.832216E-5	3.828692E-5	  -20.0008	   12.4741	    5.0904	  -25.9415	
  900.0000	 5.8695E-5	 5.8770E-5	 5.8720E-5	 5.8490E-5	 5.8800E-5	3.881254E-5	3.897097E-5	3.881743E-5	3.874976E-5	3.871200E-5	  -19.9855	   12.4467	    5.0968	  -25.9475	
  920.0000	 5.9768E-5	 5.9490E-5	 5.9670E-5	 5.9940E-5	 5.9970E-5	3.965463E-5	3.968166E-5	3.949918E-5	3.966287E-5	3.977481E-5	  -19.9728	   12.4728	    5.0835	  -25.9573	
  940.0000	 6.1142E-5	 6.1200E-5	 6.1220E-5	 6.1100E-5	 6.1050E-5	4.023721E-5	4.017982E-5	4.023333E-5	4.032786E-5	4.020782E-5	  -19.9830	   12.4436	    5.0731	  -26.0007	
  960.0000	 6.2393E-5	 6.2430E-5	 6.2170E-5	 6.2480E-5	 6.2490E-5	4.075812E-5	4.072845E-5	4.088358E-5	4.069331E-5	4.072715E-5	  -19.9957	   12.4579	    5.0756	  -25.9850	
  980.0000	 6.3678E-5	 6.3630E-5	 6.3850E-5	 6.3600E-5	 6.3630E-5	4.130295E-5	4.133795E-5	4.135176E-5	4.123661E-5	4.128549E-5	  -20.0033	   12.4623	    5.0642	  -26.0064	
 1000.0000	 6.4705E-5	 6.4570E-5	 6.4690E-5	 6.4740E-5	 6.4820E-5	4.214110E-5	4.212218E-5	4.227251E-5	4.217748E-5	4.199221E-5	  -20.0059	   12.4660	    5.0683	  -25.9949	
 1020.0000	 6.6147E-5	 6.6050E-5	 6.6160E-5	 6.6380E-5	 6.6000E-5	4.264352E-5	4.273649E-5	4.262724E-5	4.262255E-5	4.258780E-5	  -20.0008	   12.4419	    5.0500	  -26.0518	
 1040.0000	 6.7122E-5	 6.7230E-5	 6.7110E-5	 6.7020E-5	 6.7130E-5	4.340519E-5	4.346196E-5	4.344148E-5	4.329394E-5	4.342338E-5	  -19.9830	   12.4597	    5.0772	  -25.9803	
 1060.0000	 6.8678E-5	 6.8560E-5	 6.8690E-5	 6.8840E-5	 6.8620E-5	4.411431E-5	4.404225E-5	4.423479E-5	4.402879E-5	4.415140E-5	  -19.9906	   12.4436	    5.0848	  -25.9755	
 1080.0000	 6.9880E-5	 6.9760E-5	 6.9830E-5	 6.9950E-5	 6.9980E-5	4.468243E-5	4.456908E-5	4.475603E-5	4.478945E-5	4.461516E-5	  -19.9931	   12.3900	    5.0898	  -26.0031	
 1100.0000	 7.1165E-5	 7.1210E-5	 7.1090E-5	 7.1160E-5	 7.1200E-5	4.519572E-5	4.520851E-5	4.526802E-5	4.518923E-5	4.511713E-5	  -20.0008	   12.3505	    5.0848	  -26.0424	
