34331_042_2-S_HM_XX
Date/Time: 9/7/2021 5:50:58 PM
Sensor Name: 34331_042_2-S_HM_XX
Type: P
Annealing Status: Not Irradiated
Environment: RT
Tester: Eric Spencer
Notes: Diced at Fermilab

Time Delay per Ramp Step (s): 0.500

CV Time Delay per Measurement (s) :0.500

AC Voltage (V): 0.500

Current Number of measurements per voltage: 4.000

IV Time Delay per Measurement (s) :0.500


BiasVoltage	Bias Current_Avg	Bias Current_0	Bias Current_1	Bias Current_2	Bias Current_3	Temperature	Air_Temp	Humidity	Dewpoint	
   -5.0000	-9.7000E-10	-9.7000E-10	-9.7000E-10	-9.7000E-10	-9.7000E-10	   23.5000	   25.9848	   22.6841	    0.0000	
  -10.0000	-1.2400E-9	-1.2400E-9	-1.2400E-9	-1.2400E-9	-1.2400E-9	   23.5000	   25.9848	   22.6841	    0.0000	
  -15.0000	-1.4100E-9	-1.4100E-9	-1.4100E-9	-1.4100E-9	-1.4100E-9	   23.5000	   25.9848	   22.6841	    0.0000	
  -20.0000	-1.5200E-9	-1.5200E-9	-1.5200E-9	-1.5200E-9	-1.5200E-9	   23.5000	   25.9848	   22.6841	    0.0000	
  -25.0000	-1.5400E-9	-1.5400E-9	-1.5400E-9	-1.5400E-9	-1.5400E-9	   23.5000	   25.9848	   22.6841	    0.0000	
  -30.0000	-1.5900E-9	-1.5900E-9	-1.5900E-9	-1.5900E-9	-1.5900E-9	   23.5000	   25.9848	   22.6841	    0.0000	
  -35.0000	-1.6600E-9	-1.6600E-9	-1.6600E-9	-1.6600E-9	-1.6600E-9	   23.5000	   25.9848	   22.6841	    0.0000	
  -40.0000	-1.7000E-9	-1.7000E-9	-1.7000E-9	-1.7000E-9	-1.7000E-9	   23.5000	   25.9848	   22.6841	    0.0000	
  -45.0000	-1.7400E-9	-1.7400E-9	-1.7400E-9	-1.7400E-9	-1.7400E-9	   23.5000	   25.9848	   22.6841	    0.0000	
  -50.0000	-1.7700E-9	-1.7700E-9	-1.7700E-9	-1.7700E-9	-1.7700E-9	   23.5000	   25.9848	   22.6841	    0.0000	
  -55.0000	-1.7800E-9	-1.7800E-9	-1.7800E-9	-1.7800E-9	-1.7800E-9	   23.5000	   25.9848	   22.6841	    0.0000	
  -60.0000	-1.8000E-9	-1.8000E-9	-1.8000E-9	-1.8000E-9	-1.8000E-9	   23.5000	   25.9848	   22.6841	    0.0000	
  -65.0000	-1.8200E-9	-1.8200E-9	-1.8200E-9	-1.8200E-9	-1.8200E-9	   23.5000	   25.9848	   22.6841	    0.0000	
  -70.0000	-1.8400E-9	-1.8400E-9	-1.8400E-9	-1.8400E-9	-1.8400E-9	   23.5000	   25.9848	   22.6841	    0.0000	
  -75.0000	-1.8600E-9	-1.8600E-9	-1.8600E-9	-1.8600E-9	-1.8600E-9	   23.5000	   25.9848	   22.6841	    0.0000	
  -80.0000	-1.8700E-9	-1.8700E-9	-1.8700E-9	-1.8700E-9	-1.8700E-9	   23.5000	   25.9848	   22.6841	    0.0000	
  -85.0000	-1.8800E-9	-1.8800E-9	-1.8800E-9	-1.8800E-9	-1.8800E-9	   23.5000	   25.9848	   22.6841	    0.0000	
  -90.0000	-1.8900E-9	-1.8900E-9	-1.8900E-9	-1.8900E-9	-1.8900E-9	   23.5000	   25.9848	   22.6841	    0.0000	
  -95.0000	-1.9000E-9	-1.9000E-9	-1.9000E-9	-1.9000E-9	-1.9000E-9	   23.5000	   25.9848	   22.6841	    0.0000	
 -100.0000	-1.9000E-9	-1.9000E-9	-1.9000E-9	-1.9000E-9	-1.9000E-9	   23.5000	   25.9848	   22.6841	    0.0000	
 -105.0000	-1.9200E-9	-1.9200E-9	-1.9200E-9	-1.9200E-9	-1.9200E-9	   23.5000	   25.9848	   22.6841	    0.0000	
 -110.0000	-1.9200E-9	-1.9200E-9	-1.9200E-9	-1.9200E-9	-1.9200E-9	   23.5000	   25.9848	   22.6841	    0.0000	
 -115.0000	-1.9300E-9	-1.9300E-9	-1.9300E-9	-1.9300E-9	-1.9300E-9	   23.5000	   25.9848	   22.6841	    0.0000	
 -120.0000	-1.9300E-9	-1.9300E-9	-1.9300E-9	-1.9300E-9	-1.9300E-9	   23.5000	   25.9848	   22.6841	    0.0000	
 -125.0000	-1.9400E-9	-1.9400E-9	-1.9400E-9	-1.9400E-9	-1.9400E-9	   23.5000	   25.9848	   22.6841	    0.0000	
 -130.0000	-1.9500E-9	-1.9500E-9	-1.9500E-9	-1.9500E-9	-1.9500E-9	   23.5000	   25.9848	   22.6841	    0.0000	
 -135.0000	-1.9500E-9	-1.9500E-9	-1.9500E-9	-1.9500E-9	-1.9500E-9	   23.5000	   25.9848	   22.6841	    0.0000	
 -140.0000	-1.9500E-9	-1.9500E-9	-1.9500E-9	-1.9500E-9	-1.9500E-9	   23.5000	   25.9848	   22.6841	    0.0000	
 -145.0000	-1.9600E-9	-1.9600E-9	-1.9600E-9	-1.9600E-9	-1.9600E-9	   23.5000	   25.9848	   22.6841	    0.0000	
 -150.0000	-1.9700E-9	-1.9700E-9	-1.9700E-9	-1.9700E-9	-1.9700E-9	   23.5000	   25.9848	   22.6841	    0.0000	
 -155.0000	-1.9800E-9	-1.9800E-9	-1.9800E-9	-1.9800E-9	-1.9800E-9	   23.5000	   25.9848	   22.6841	    0.0000	
 -160.0000	-1.9900E-9	-1.9900E-9	-1.9900E-9	-1.9900E-9	-1.9900E-9	   23.5000	   25.9848	   22.6841	    0.0000	
 -165.0000	-1.9900E-9	-1.9900E-9	-1.9900E-9	-1.9900E-9	-1.9900E-9	   23.5000	   25.9848	   22.6841	    0.0000	
 -170.0000	-1.9900E-9	-1.9900E-9	-1.9900E-9	-1.9900E-9	-1.9900E-9	   23.5000	   25.9848	   22.6841	    0.0000	
 -175.0000	-2.0000E-9	-2.0000E-9	-2.0000E-9	-2.0000E-9	-2.0000E-9	   23.5000	   25.9848	   22.6841	    0.0000	
 -180.0000	-2.0000E-9	-2.0000E-9	-2.0000E-9	-2.0000E-9	-2.0000E-9	   23.5000	   25.9848	   22.6841	    0.0000	
 -185.0000	-2.0000E-9	-2.0000E-9	-2.0000E-9	-2.0000E-9	-2.0000E-9	   23.5000	   25.9848	   22.6841	    0.0000	
 -190.0000	-2.0000E-9	-2.0000E-9	-2.0000E-9	-2.0000E-9	-2.0000E-9	   23.5000	   25.9848	   22.6841	    0.0000	
 -195.0000	-2.0100E-9	-2.0100E-9	-2.0100E-9	-2.0100E-9	-2.0100E-9	   23.5000	   25.9848	   22.6841	    0.0000	
 -200.0000	-2.0200E-9	-2.0200E-9	-2.0200E-9	-2.0200E-9	-2.0200E-9	   23.5000	   25.9848	   22.6841	    0.0000	
 -205.0000	-2.0200E-9	-2.0200E-9	-2.0200E-9	-2.0200E-9	-2.0200E-9	   23.5000	   25.9848	   22.6841	    0.0000	
 -210.0000	-2.0300E-9	-2.0300E-9	-2.0300E-9	-2.0300E-9	-2.0300E-9	   23.5000	   25.9848	   22.6841	    0.0000	
 -215.0000	-2.0300E-9	-2.0300E-9	-2.0300E-9	-2.0300E-9	-2.0300E-9	   23.5000	   25.9848	   22.6841	    0.0000	
 -220.0000	-2.0400E-9	-2.0400E-9	-2.0400E-9	-2.0400E-9	-2.0400E-9	   23.5000	   25.9848	   22.6841	    0.0000	
 -225.0000	-2.0500E-9	-2.0500E-9	-2.0500E-9	-2.0500E-9	-2.0500E-9	   23.5000	   25.9848	   22.6841	    0.0000	
 -230.0000	-2.0600E-9	-2.0600E-9	-2.0600E-9	-2.0600E-9	-2.0600E-9	   23.5000	   25.9848	   22.6841	    0.0000	
 -235.0000	-2.0600E-9	-2.0600E-9	-2.0600E-9	-2.0600E-9	-2.0600E-9	   23.5000	   25.9848	   22.6841	    0.0000	
 -240.0000	-2.0700E-9	-2.0700E-9	-2.0700E-9	-2.0700E-9	-2.0700E-9	   23.5000	   25.9848	   22.6841	    0.0000	
 -245.0000	-2.0800E-9	-2.0800E-9	-2.0800E-9	-2.0800E-9	-2.0800E-9	   23.5000	   25.9848	   22.6841	    0.0000	
 -250.0000	-2.0900E-9	-2.0900E-9	-2.0900E-9	-2.0900E-9	-2.0900E-9	   23.5000	   25.9848	   22.6841	    0.0000	
 -255.0000	-2.1100E-9	-2.1100E-9	-2.1100E-9	-2.1100E-9	-2.1100E-9	   23.5000	   25.9848	   22.6841	    0.0000	
 -260.0000	-2.1200E-9	-2.1200E-9	-2.1200E-9	-2.1200E-9	-2.1200E-9	   23.5000	   25.9848	   22.6841	    0.0000	
 -265.0000	-2.1200E-9	-2.1200E-9	-2.1200E-9	-2.1200E-9	-2.1200E-9	   23.5000	   25.9848	   22.6841	    0.0000	
 -270.0000	-2.1400E-9	-2.1400E-9	-2.1400E-9	-2.1400E-9	-2.1400E-9	   23.5000	   25.9848	   22.6841	    0.0000	
 -275.0000	-2.1500E-9	-2.1500E-9	-2.1500E-9	-2.1500E-9	-2.1500E-9	   23.5000	   25.9848	   22.6841	    0.0000	
 -280.0000	-2.1600E-9	-2.1600E-9	-2.1600E-9	-2.1600E-9	-2.1600E-9	   23.5000	   25.9848	   22.6841	    0.0000	
 -285.0000	-2.1800E-9	-2.1800E-9	-2.1800E-9	-2.1800E-9	-2.1800E-9	   23.5000	   25.9848	   22.6841	    0.0000	
 -290.0000	-2.1900E-9	-2.1900E-9	-2.1900E-9	-2.1900E-9	-2.1900E-9	   23.5000	   25.9848	   22.6841	    0.0000	
 -295.0000	-2.2000E-9	-2.2000E-9	-2.2000E-9	-2.2000E-9	-2.2000E-9	   23.5000	   25.9848	   22.6841	    0.0000	
 -300.0000	-2.2100E-9	-2.2100E-9	-2.2100E-9	-2.2100E-9	-2.2100E-9	   23.5000	   25.9848	   22.6841	    0.0000	
 -305.0000	-2.2300E-9	-2.2300E-9	-2.2300E-9	-2.2300E-9	-2.2300E-9	   23.5000	   25.9848	   22.6841	    0.0000	
 -310.0000	-2.2300E-9	-2.2300E-9	-2.2300E-9	-2.2300E-9	-2.2300E-9	   23.5000	   25.9848	   22.6841	    0.0000	
 -315.0000	-2.2400E-9	-2.2400E-9	-2.2400E-9	-2.2400E-9	-2.2400E-9	   23.5000	   25.9848	   22.6841	    0.0000	
 -320.0000	-2.2500E-9	-2.2500E-9	-2.2500E-9	-2.2500E-9	-2.2500E-9	   23.5000	   25.9848	   22.6841	    0.0000	
 -325.0000	-2.2600E-9	-2.2600E-9	-2.2600E-9	-2.2600E-9	-2.2600E-9	   23.5000	   25.9848	   22.6841	    0.0000	
 -330.0000	-2.2600E-9	-2.2600E-9	-2.2600E-9	-2.2600E-9	-2.2600E-9	   23.5000	   25.9848	   22.6841	    0.0000	
 -335.0000	-2.2700E-9	-2.2700E-9	-2.2700E-9	-2.2700E-9	-2.2700E-9	   23.5000	   25.9848	   22.6841	    0.0000	
 -340.0000	-2.2700E-9	-2.2700E-9	-2.2700E-9	-2.2700E-9	-2.2700E-9	   23.5000	   25.9848	   22.6841	    0.0000	
 -345.0000	-2.2800E-9	-2.2800E-9	-2.2800E-9	-2.2800E-9	-2.2800E-9	   23.5000	   25.9848	   22.6841	    0.0000	
 -350.0000	-2.2900E-9	-2.2900E-9	-2.2900E-9	-2.2900E-9	-2.2900E-9	   23.5000	   25.9848	   22.6841	    0.0000	
 -355.0000	-2.2900E-9	-2.2900E-9	-2.2900E-9	-2.2900E-9	-2.2900E-9	   23.5000	   25.9848	   22.6841	    0.0000	
 -360.0000	-2.2900E-9	-2.2900E-9	-2.2900E-9	-2.2900E-9	-2.2900E-9	   23.5000	   25.9848	   22.6841	    0.0000	
 -365.0000	-2.3000E-9	-2.3000E-9	-2.3000E-9	-2.3000E-9	-2.3000E-9	   23.5000	   25.9848	   22.6841	    0.0000	
 -370.0000	-2.3000E-9	-2.3000E-9	-2.3000E-9	-2.3000E-9	-2.3000E-9	   23.5000	   25.9848	   22.6841	    0.0000	
 -375.0000	-2.3100E-9	-2.3100E-9	-2.3100E-9	-2.3100E-9	-2.3100E-9	   23.5000	   25.9848	   22.6841	    0.0000	
 -380.0000	-2.3200E-9	-2.3200E-9	-2.3200E-9	-2.3200E-9	-2.3200E-9	   23.5000	   25.9848	   22.6841	    0.0000	
 -385.0000	-2.3200E-9	-2.3200E-9	-2.3200E-9	-2.3200E-9	-2.3200E-9	   23.5000	   25.9848	   22.6841	    0.0000	
 -390.0000	-2.3100E-9	-2.3100E-9	-2.3100E-9	-2.3100E-9	-2.3100E-9	   23.5000	   25.9848	   22.6841	    0.0000	
 -395.0000	-2.3200E-9	-2.3200E-9	-2.3200E-9	-2.3200E-9	-2.3200E-9	   23.5000	   25.9848	   22.6841	    0.0000	
 -400.0000	-2.3200E-9	-2.3200E-9	-2.3200E-9	-2.3200E-9	-2.3200E-9	   23.5000	   25.9848	   22.6841	    0.0000	
 -410.0000	-2.3400E-9	-2.3400E-9	-2.3400E-9	-2.3400E-9	-2.3400E-9	   23.5000	   25.9848	   22.6841	    0.0000	
 -420.0000	-2.3400E-9	-2.3400E-9	-2.3400E-9	-2.3400E-9	-2.3400E-9	   23.5000	   25.9848	   22.6841	    0.0000	
 -430.0000	-2.3400E-9	-2.3400E-9	-2.3400E-9	-2.3400E-9	-2.3400E-9	   23.5000	   25.9848	   22.6841	    0.0000	
 -440.0000	-2.3600E-9	-2.3600E-9	-2.3600E-9	-2.3600E-9	-2.3600E-9	   23.5000	   25.9848	   22.6841	    0.0000	
 -450.0000	-2.3600E-9	-2.3600E-9	-2.3600E-9	-2.3600E-9	-2.3600E-9	   23.5000	   25.9848	   22.6841	    0.0000	
 -460.0000	-2.3700E-9	-2.3700E-9	-2.3700E-9	-2.3700E-9	-2.3700E-9	   23.5000	   25.9848	   22.6841	    0.0000	
 -470.0000	-2.3700E-9	-2.3700E-9	-2.3700E-9	-2.3700E-9	-2.3700E-9	   23.5000	   25.9848	   22.6841	    0.0000	
 -480.0000	-2.3800E-9	-2.3800E-9	-2.3800E-9	-2.3800E-9	-2.3800E-9	   23.5000	   25.9848	   22.6841	    0.0000	
 -490.0000	-2.3900E-9	-2.3900E-9	-2.3900E-9	-2.3900E-9	-2.3900E-9	   23.5000	   25.9848	   22.6841	    0.0000	
 -500.0000	-2.3900E-9	-2.3900E-9	-2.3900E-9	-2.3900E-9	-2.3900E-9	   23.5000	   25.9848	   22.6841	    0.0000	
 -510.0000	-2.4000E-9	-2.4000E-9	-2.4000E-9	-2.4000E-9	-2.4000E-9	   23.5000	   25.9848	   22.6841	    0.0000	
 -520.0000	-2.4000E-9	-2.4000E-9	-2.4000E-9	-2.4000E-9	-2.4000E-9	   23.5000	   25.9848	   22.6841	    0.0000	
 -530.0000	-2.4200E-9	-2.4200E-9	-2.4200E-9	-2.4200E-9	-2.4200E-9	   23.5000	   25.9848	   22.6841	    0.0000	
 -540.0000	-2.4200E-9	-2.4200E-9	-2.4200E-9	-2.4200E-9	-2.4200E-9	   23.5000	   25.9848	   22.6841	    0.0000	
 -550.0000	-2.4400E-9	-2.4400E-9	-2.4400E-9	-2.4400E-9	-2.4400E-9	   23.5000	   25.9848	   22.6841	    0.0000	
 -560.0000	-2.5700E-9	-2.5700E-9	-2.5700E-9	-2.5700E-9	-2.5700E-9	   23.5000	   25.9848	   22.6841	    0.0000	
 -570.0000	-3.5600E-9	-3.5600E-9	-3.5600E-9	-3.5600E-9	-3.5600E-9	   23.5000	   25.9848	   22.6841	    0.0000	
 -580.0000	-5.9500E-9	-5.9500E-9	-5.9500E-9	-5.9500E-9	-5.9500E-9	   23.5000	   25.9848	   22.6841	    0.0000	
 -590.0000	-1.0880E-8	-1.0880E-8	-1.0880E-8	-1.0880E-8	-1.0880E-8	   23.5000	   25.9848	   22.6841	    0.0000	
 -600.0000	-1.7190E-8	-1.7190E-8	-1.7190E-8	-1.7190E-8	-1.7190E-8	   23.5000	   25.9848	   22.6841	    0.0000	
 -610.0000	-2.4400E-8	-2.4400E-8	-2.4400E-8	-2.4400E-8	-2.4400E-8	   23.5000	   25.9848	   22.6841	    0.0000	
 -620.0000	-3.3090E-8	-3.3090E-8	-3.3090E-8	-3.3090E-8	-3.3090E-8	   23.5000	   25.9848	   22.6841	    0.0000	
 -630.0000	-4.2320E-8	-4.2320E-8	-4.2320E-8	-4.2320E-8	-4.2320E-8	   23.5000	   25.9848	   22.6841	    0.0000	
 -640.0000	-5.0180E-8	-5.0180E-8	-5.0180E-8	-5.0180E-8	-5.0180E-8	   23.5000	   25.9848	   22.6841	    0.0000	
 -650.0000	-5.6530E-8	-5.6530E-8	-5.6530E-8	-5.6530E-8	-5.6530E-8	   23.5000	   25.9848	   22.6841	    0.0000	
 -660.0000	-6.3900E-8	-6.3900E-8	-6.3900E-8	-6.3900E-8	-6.3900E-8	   23.5000	   25.9848	   22.6841	    0.0000	
 -670.0000	-7.2000E-8	-7.2000E-8	-7.2000E-8	-7.2000E-8	-7.2000E-8	   23.5000	   25.9848	   22.6841	    0.0000	
 -680.0000	-8.0140E-8	-8.0140E-8	-8.0140E-8	-8.0140E-8	-8.0140E-8	   23.5000	   25.9848	   22.6841	    0.0000	
 -690.0000	-8.8630E-8	-8.8630E-8	-8.8630E-8	-8.8630E-8	-8.8630E-8	   23.5000	   25.9848	   22.6841	    0.0000	
 -700.0000	-9.9660E-8	-9.9660E-8	-9.9660E-8	-9.9660E-8	-9.9660E-8	   23.5000	   25.9848	   22.6841	    0.0000	
 -710.0000	-1.0862E-7	-1.0862E-7	-1.0862E-7	-1.0862E-7	-1.0862E-7	   23.5000	   25.9848	   22.6841	    0.0000	
 -720.0000	-1.1970E-7	-1.1970E-7	-1.1970E-7	-1.1970E-7	-1.1970E-7	   23.5000	   25.9848	   22.6841	    0.0000	
 -730.0000	-1.3104E-7	-1.3104E-7	-1.3104E-7	-1.3104E-7	-1.3104E-7	   23.5000	   25.9848	   22.6841	    0.0000	
 -740.0000	-1.4356E-7	-1.4356E-7	-1.4356E-7	-1.4356E-7	-1.4356E-7	   23.5000	   25.9848	   22.6841	    0.0000	
 -750.0000	-1.5822E-7	-1.5822E-7	-1.5822E-7	-1.5822E-7	-1.5822E-7	   23.5000	   25.9848	   22.6841	    0.0000	
 -760.0000	-1.7651E-7	-1.7651E-7	-1.7651E-7	-1.7651E-7	-1.7651E-7	   23.5000	   25.9848	   22.6841	    0.0000	
 -770.0000	-2.0071E-7	-2.0071E-7	-2.0071E-7	-2.0071E-7	-2.0071E-7	   23.5000	   25.9848	   22.6841	    0.0000	
 -780.0000	-2.2985E-7	-2.2985E-7	-2.2985E-7	-2.2985E-7	-2.2985E-7	   23.5000	   25.9848	   22.6841	    0.0000	
 -790.0000	-2.6425E-7	-2.6425E-7	-2.6425E-7	-2.6425E-7	-2.6425E-7	   23.5000	   25.9848	   22.6841	    0.0000	
 -800.0000	-2.9145E-7	-2.9145E-7	-2.9145E-7	-2.9145E-7	-2.9145E-7	   23.5000	   25.9848	   22.6841	    0.0000	
 -810.0000	-3.2734E-7	-3.2734E-7	-3.2734E-7	-3.2734E-7	-3.2734E-7	   23.5000	   25.9848	   22.6841	    0.0000	
 -820.0000	-3.7121E-7	-3.7121E-7	-3.7121E-7	-3.7121E-7	-3.7121E-7	   23.5000	   25.9848	   22.6841	    0.0000	
 -830.0000	-4.1601E-7	-4.1601E-7	-4.1601E-7	-4.1601E-7	-4.1601E-7	   23.5000	   25.9848	   22.6841	    0.0000	
 -840.0000	-4.7046E-7	-4.7046E-7	-4.7046E-7	-4.7046E-7	-4.7046E-7	   23.5000	   25.9848	   22.6841	    0.0000	
 -850.0000	-5.2430E-7	-5.2430E-7	-5.2430E-7	-5.2430E-7	-5.2430E-7	   23.5000	   25.9848	   22.6841	    0.0000	
 -860.0000	-5.8179E-7	-5.8179E-7	-5.8179E-7	-5.8179E-7	-5.8179E-7	   23.5000	   25.9848	   22.6841	    0.0000	
 -870.0000	-6.5216E-7	-6.5216E-7	-6.5216E-7	-6.5216E-7	-6.5216E-7	   23.5000	   25.9848	   22.6841	    0.0000	
 -880.0000	-7.3027E-7	-7.3027E-7	-7.3027E-7	-7.3027E-7	-7.3027E-7	   23.5000	   25.9848	   22.6841	    0.0000	
 -890.0000	-8.2077E-7	-8.2077E-7	-8.2077E-7	-8.2077E-7	-8.2077E-7	   23.5000	   25.9848	   22.6841	    0.0000	
 -900.0000	-9.2159E-7	-9.2159E-7	-9.2159E-7	-9.2159E-7	-9.2159E-7	   23.5000	   25.9848	   22.6841	    0.0000	
 -910.0000	-1.0403E-6	-1.0403E-6	-1.0403E-6	-1.0403E-6	-1.0403E-6	    0.0000	    0.0000	    0.0000	    0.0000	
