GCD Test
Bias: 5000.000000
CV_34341_012_PSS_HM_XX_DIODEQUARTER
Date/Time: 6/30/2021 2:05:52 PM
Sensor Name: DIODEQUARTER
Type: P
Annealing Status: Not Irradiated
Environment: 20C
Tester: Andrew Kent

Time Delay per Ramp Step (s): 0.500

CV Time Delay per Measurement (s) :0.500

AC Voltage (V): 0.500

Current Number of measurements per voltage: 1.000

IV Time Delay per Measurement (s) :0.000


BiasVoltage	LCR_Cp_freq1000.0	LCR_Rp_freq1000.0	Temperature	Air_Temp	Humidity	Dewpoint	
   -5.0000	1.630E-11	1.887E+9	   20.1274	   16.7661	    8.1505	  -17.4422	
  -10.0000	1.296E-11	2.101E+9	   20.1763	   16.7659	    8.1464	  -17.4483	
  -15.0000	1.140E-11	2.093E+9	   20.1763	   16.7636	    8.1505	  -17.4440	
  -20.0000	1.043E-11	2.148E+9	   20.1068	   16.7561	    8.1360	  -17.4707	
  -25.0000	9.746E-12	2.145E+9	   19.9627	   16.7561	    8.1312	  -17.4776	
  -30.0000	9.241E-12	2.139E+9	   19.8494	   16.7435	    8.1344	  -17.4825	
  -35.0000	8.810E-12	2.206E+9	   19.7413	   16.7346	    8.1376	  -17.4846	
  -40.0000	8.447E-12	2.233E+9	   19.6718	   16.7317	    8.1357	  -17.4895	
  -45.0000	8.143E-12	2.196E+9	   19.6410	   16.7206	    8.1363	  -17.4969	
  -50.0000	7.862E-12	2.149E+9	   19.6616	   16.7294	    8.1442	  -17.4789	
  -55.0000	7.602E-12	2.096E+9	   19.7259	   16.7316	    8.1423	  -17.4800	
  -60.0000	7.351E-12	2.222E+9	   19.8134	   16.7380	    8.1512	  -17.4623	
  -65.0000	7.104E-12	2.295E+9	   19.9086	   16.7489	    8.1493	  -17.4568	
  -70.0000	6.850E-12	2.219E+9	   20.0167	   16.7525	    8.1496	  -17.4537	
  -75.0000	6.618E-12	2.306E+9	   20.0939	   16.7733	    8.1648	  -17.4161	
  -80.0000	6.434E-12	2.274E+9	   20.1557	   16.7831	    8.1638	  -17.4102	
  -85.0000	6.293E-12	2.222E+9	   20.1815	   16.7699	    8.1597	  -17.4260	
  -90.0000	6.203E-12	2.270E+9	   20.1686	   16.7661	    8.1572	  -17.4325	
  -95.0000	6.143E-12	2.243E+9	   20.1197	   16.7563	    8.1597	  -17.4362	
 -100.0000	6.099E-12	2.314E+9	   20.0322	   16.7441	    8.1695	  -17.4312	
 -105.0000	6.058E-12	1.871E+9	   19.9369	   16.7294	    8.1771	  -17.4312	
 -110.0000	5.901E-12	5.358E+8	   19.8366	   16.7309	    8.1632	  -17.4502	
 -115.0000	5.258E-12	2.008E+9	   19.7336	   16.7314	    8.1853	  -17.4178	
 -120.0000	5.240E-12	2.044E+9	   19.6667	   16.7229	    8.1796	  -17.4324	
 -125.0000	5.221E-12	2.108E+9	   19.6435	   16.7174	    8.1958	  -17.4133	
 -130.0000	5.214E-12	2.140E+9	   19.6744	   16.7074	    8.2024	  -17.4112	
 -135.0000	5.198E-12	2.125E+9	   19.7439	   16.7141	    8.2043	  -17.4035	
 -140.0000	5.186E-12	2.157E+9	   19.8494	   16.7332	    8.2062	  -17.3863	
 -145.0000	5.170E-12	2.344E+9	   19.9884	   16.7332	    8.2211	  -17.3649	
 -150.0000	5.159E-12	2.255E+9	   20.0734	   16.7399	    8.2106	  -17.3750	
 -155.0000	5.151E-12	2.197E+9	   20.1377	   16.7432	    8.2230	  -17.3548	
 -160.0000	5.140E-12	2.233E+9	   20.1712	   16.7457	    8.2290	  -17.3442	
 -165.0000	5.129E-12	2.351E+9	   20.1145	   16.7457	    8.2201	  -17.3569	
 -170.0000	5.122E-12	2.373E+9	   20.0425	   16.7337	    8.2214	  -17.3641	
 -175.0000	5.109E-12	2.245E+9	   19.9575	   16.7298	    8.2113	  -17.3816	
 -180.0000	5.099E-12	2.358E+9	   19.8546	   16.7317	    8.2258	  -17.3593	
 -185.0000	5.088E-12	2.372E+9	   19.7696	   16.7199	    8.2290	  -17.3636	
 -190.0000	5.082E-12	2.135E+9	   19.7130	   16.7072	    8.2293	  -17.3727	
 -195.0000	5.072E-12	2.371E+9	   19.7002	   16.7066	    8.2296	  -17.3727	
 -200.0000	5.064E-12	2.387E+9	   19.7516	   16.7152	    8.2347	  -17.3589	
 -205.0000	5.055E-12	2.322E+9	   19.7516	   16.7152	    8.2347	  -17.3589	
 -210.0000	5.047E-12	2.364E+9	   19.8623	   16.7099	    8.2400	  -17.3552	
 -215.0000	5.044E-12	2.236E+9	   19.9653	   16.7205	    8.2549	  -17.3259	
 -220.0000	5.037E-12	2.264E+9	   20.0631	   16.7337	    8.2381	  -17.3400	
 -225.0000	5.033E-12	2.305E+9	   20.1583	   16.7437	    8.2378	  -17.3330	
 -230.0000	5.029E-12	2.244E+9	   20.2304	   16.7437	    8.2527	  -17.3117	
 -235.0000	5.029E-12	2.269E+9	   20.2407	   16.7536	    8.2432	  -17.3179	
 -240.0000	5.023E-12	2.282E+9	   20.1609	   16.7284	    8.2378	  -17.3445	
 -245.0000	5.020E-12	2.396E+9	   20.0322	   16.7284	    8.2252	  -17.3627	
 -250.0000	5.025E-12	2.436E+9	   19.9138	   16.7205	    8.2410	  -17.3459	
 -255.0000	5.018E-12	2.412E+9	   19.7825	   16.7113	    8.2340	  -17.3628	
 -260.0000	5.017E-12	2.317E+9	   19.6616	   16.7045	    8.2350	  -17.3665	
 -265.0000	5.020E-12	2.367E+9	   19.6152	   16.6826	    8.2429	  -17.3716	
 -270.0000	5.015E-12	2.451E+9	   19.6178	   16.6930	    8.2429	  -17.3638	
 -275.0000	5.017E-12	2.380E+9	   19.6693	   16.6892	    8.2296	  -17.3858	
 -280.0000	5.017E-12	2.485E+9	   19.7671	   16.6973	    8.2356	  -17.3710	
 -285.0000	5.015E-12	2.370E+9	   19.8906	   16.6973	    8.2337	  -17.3738	
 -290.0000	5.014E-12	2.363E+9	   19.9987	   16.7168	    8.2416	  -17.3477	
 -295.0000	5.015E-12	2.366E+9	   20.0939	   16.7290	    8.2378	  -17.3440	
 -300.0000	5.011E-12	2.433E+9	   20.1506	   16.7290	    8.2435	  -17.3359	
 -305.0000	5.015E-12	2.305E+9	   20.1557	   16.7204	    8.2391	  -17.3487	
 -310.0000	5.016E-12	2.288E+9	   20.1223	   16.7086	    8.2337	  -17.3652	
 -315.0000	5.010E-12	2.301E+9	   20.0245	   16.7016	    8.2287	  -17.3778	
 -320.0000	5.013E-12	2.413E+9	   19.8880	   16.6960	    8.2271	  -17.3843	
 -325.0000	5.011E-12	2.394E+9	   19.7645	   16.6960	    8.2217	  -17.3920	
 -330.0000	5.012E-12	2.437E+9	   19.6667	   16.6852	    8.2151	  -17.4097	
 -335.0000	5.011E-12	2.533E+9	   19.6384	   16.6732	    8.2154	  -17.4182	
 -340.0000	5.013E-12	2.338E+9	   19.6538	   16.6782	    8.2151	  -17.4149	
 -345.0000	5.015E-12	2.374E+9	   19.7156	   16.6787	    8.2217	  -17.4050	
 -350.0000	5.011E-12	2.531E+9	   19.7954	   16.6875	    8.2214	  -17.3989	
 -355.0000	5.010E-12	2.461E+9	   19.9009	   16.6905	    8.2230	  -17.3943	
 -360.0000	5.012E-12	2.379E+9	   19.9961	   16.6919	    8.2233	  -17.3928	
 -365.0000	5.012E-12	2.407E+9	   20.0862	   16.7051	    8.2233	  -17.3829	
 -370.0000	5.008E-12	2.375E+9	   20.1531	   16.7071	    8.2233	  -17.3814	
 -375.0000	5.012E-12	2.495E+9	   20.1763	   16.7223	    8.2195	  -17.3755	
 -380.0000	5.013E-12	2.398E+9	   20.1454	   16.7075	    8.2204	  -17.3852	
 -385.0000	5.013E-12	2.344E+9	   20.0708	   16.7138	    8.2043	  -17.4037	
 -390.0000	5.012E-12	2.412E+9	   19.9704	   16.7113	    8.1999	  -17.4119	
 -395.0000	5.011E-12	2.469E+9	   19.8700	   16.6998	    8.1939	  -17.4292	
 -400.0000	5.011E-12	2.433E+9	   19.7799	   16.6811	    8.1973	  -17.4383	
 -410.0000	5.008E-12	2.411E+9	   19.7053	   16.6720	    8.1875	  -17.4592	
 -420.0000	5.008E-12	2.467E+9	   19.6770	   16.6789	    8.1958	  -17.4422	
 -430.0000	5.012E-12	2.444E+9	   19.7182	   16.6789	    8.2034	  -17.4313	
 -440.0000	5.008E-12	2.424E+9	   19.7954	   16.6809	    8.1996	  -17.4352	
 -450.0000	5.011E-12	2.700E+9	   19.7954	   16.6809	    8.1996	  -17.4352	
 -460.0000	5.010E-12	2.416E+9	   19.9241	   16.6874	    8.2043	  -17.4235	
 -470.0000	5.008E-12	2.561E+9	   20.1403	   16.7090	    8.2008	  -17.4123	
 -480.0000	5.009E-12	2.396E+9	   20.1969	   16.7055	    8.2052	  -17.4086	
 -490.0000	5.006E-12	2.507E+9	   20.2149	   16.7055	    8.2075	  -17.4054	
 -500.0000	5.008E-12	2.405E+9	   20.2149	   16.7055	    8.2075	  -17.4054	
 -510.0000	5.007E-12	2.461E+9	   20.1531	   16.7048	    8.1923	  -17.4278	
 -520.0000	5.007E-12	2.530E+9	   19.9344	   16.6969	    8.2005	  -17.4219	
 -530.0000	5.009E-12	2.479E+9	   19.8211	   16.6814	    8.2021	  -17.4312	
 -540.0000	5.007E-12	2.462E+9	   19.6976	   16.6709	    8.1882	  -17.4591	
 -550.0000	5.010E-12	2.438E+9	   19.6384	   16.6709	    8.1904	  -17.4559	
 -560.0000	5.011E-12	2.459E+9	   19.6358	   16.6713	    8.2011	  -17.4402	
 -570.0000	5.009E-12	2.541E+9	   19.7105	   16.6755	    8.2043	  -17.4325	
 -580.0000	5.009E-12	2.443E+9	   19.8134	   16.6755	    8.1939	  -17.4475	
 -590.0000	5.004E-12	2.501E+9	   19.9318	   16.6889	    8.2090	  -17.4155	
 -600.0000	5.008E-12	2.686E+9	   20.0579	   16.6889	    8.2030	  -17.4242	
