GCD Test
Bias: 5000.000000
IV_34331_042_2-S_HM_XX_DIODEHALFPSTOP_GRConnected_Irradiated
Date/Time: 10/21/2021 2:32:34 PM
Sensor Name: DIODEHALFPSTOP
Type: P
Annealing Status: Irradiated and Annealed at 60C for 80 min
Environment: -15C
Tester: Andrew Kent

Time Delay per Ramp Step (s): 1.000

CV Time Delay per Measurement (s) :0.500

AC Voltage (V): 0.500

Current Number of measurements per voltage: 4.000

IV Time Delay per Measurement (s) :0.500


BiasVoltage	Total Current_Avg	Total Current_0	Total Current_1	Total Current_2	Total Current_3	Bias Current_Avg	Bias Current_0	Bias Current_1	Bias Current_2	Bias Current_3	Temperature	Air_Temp	Humidity	Dewpoint	
  -10.0000	-2.6550E-6	-2.6550E-6	-2.6530E-6	-2.6580E-6	-2.6540E-6	-1.168499E-7	-1.169289E-7	-1.166796E-7	-1.169301E-7	-1.168610E-7	  -14.8267	    7.9039	   11.8761	  -19.8544	
  -20.0000	-3.9237E-6	-3.9250E-6	-3.9270E-6	-3.9210E-6	-3.9220E-6	-1.579887E-7	-1.580828E-7	-1.579821E-7	-1.579987E-7	-1.578913E-7	  -14.8841	    7.9012	   11.8922	  -19.8409	
  -30.0000	-4.8985E-6	-4.8900E-6	-4.9060E-6	-4.9230E-6	-4.8750E-6	-1.892036E-7	-1.893026E-7	-1.890144E-7	-1.892188E-7	-1.892785E-7	  -14.9416	    7.9482	   11.8473	  -19.8475	
  -40.0000	-5.6843E-6	-5.7120E-6	-5.6890E-6	-5.6720E-6	-5.6640E-6	-2.157806E-7	-2.160026E-7	-2.157914E-7	-2.158511E-7	-2.154774E-7	  -14.9888	    7.9228	   11.8886	  -19.8274	
  -50.0000	-6.3937E-6	-6.3950E-6	-6.3730E-6	-6.3980E-6	-6.4090E-6	-2.407490E-7	-2.404658E-7	-2.404831E-7	-2.411130E-7	-2.409341E-7	  -15.0072	    7.8516	   11.8818	  -19.8901	
  -60.0000	-7.0570E-6	-7.0360E-6	-7.0520E-6	-7.0590E-6	-7.0810E-6	-2.634531E-7	-2.632751E-7	-2.637275E-7	-2.634688E-7	-2.633411E-7	  -15.0188	    8.1524	   11.8856	  -19.6494	
  -70.0000	-7.6660E-6	-7.6740E-6	-7.6570E-6	-7.6460E-6	-7.6870E-6	-2.836220E-7	-2.833308E-7	-2.833725E-7	-2.837041E-7	-2.840808E-7	  -14.9988	    7.8910	   11.8828	  -19.8580	
  -80.0000	-8.3028E-6	-8.3090E-6	-8.3110E-6	-8.3270E-6	-8.2640E-6	-3.028229E-7	-3.024122E-7	-3.026276E-7	-3.029341E-7	-3.033177E-7	  -14.9197	    8.1083	   11.9033	  -19.6670	
  -90.0000	-8.8985E-6	-8.8780E-6	-8.8880E-6	-8.9080E-6	-8.9200E-6	-3.245124E-7	-3.242435E-7	-3.245470E-7	-3.245725E-7	-3.246867E-7	  -14.8605	    8.0624	   11.8821	  -19.7237	
 -100.0000	-9.4450E-6	-9.4720E-6	-9.4580E-6	-9.4400E-6	-9.4100E-6	-3.428358E-7	-3.429292E-7	-3.428925E-7	-3.429208E-7	-3.426005E-7	  -14.7997	    7.9844	   11.9123	  -19.7557	
 -110.0000	-9.9220E-6	-9.9270E-6	-9.8980E-6	-9.8990E-6	-9.9640E-6	-3.614977E-7	-3.613427E-7	-3.614209E-7	-3.614852E-7	-3.617422E-7	  -14.7732	    7.9928	   11.8716	  -19.7888	
 -120.0000	-1.0512E-5	-1.0510E-5	-1.0510E-5	-1.0550E-5	-1.0480E-5	-3.789651E-7	-3.791523E-7	-3.788242E-7	-3.790408E-7	-3.788429E-7	  -14.7742	    8.2663	   11.8845	  -19.5608	
 -130.0000	-1.0973E-5	-1.0970E-5	-1.0970E-5	-1.0980E-5	-1.0970E-5	-3.949466E-7	-3.954841E-7	-3.949562E-7	-3.947767E-7	-3.945695E-7	  -14.7975	    8.0371	   11.9054	  -19.7210	
 -140.0000	-1.1435E-5	-1.1450E-5	-1.1440E-5	-1.1440E-5	-1.1410E-5	-4.088262E-7	-4.085197E-7	-4.086010E-7	-4.088869E-7	-4.092971E-7	  -14.8535	    7.9997	   11.8824	  -19.7728	
 -150.0000	-1.1847E-5	-1.1840E-5	-1.1840E-5	-1.1850E-5	-1.1860E-5	-4.221754E-7	-4.221238E-7	-4.221037E-7	-4.221624E-7	-4.223118E-7	  -14.8884	    8.0528	   11.8706	  -19.7424	
 -160.0000	-1.2278E-5	-1.2310E-5	-1.2300E-5	-1.2280E-5	-1.2220E-5	-4.351169E-7	-4.353105E-7	-4.353603E-7	-4.350113E-7	-4.347856E-7	  -14.9438	    8.0162	   11.8997	  -19.7430	
 -170.0000	-1.2610E-5	-1.2690E-5	-1.2650E-5	-1.2570E-5	-1.2530E-5	-4.474827E-7	-4.480020E-7	-4.475688E-7	-4.472115E-7	-4.471483E-7	  -14.9846	    8.1396	   11.8517	  -19.6926	
 -180.0000	-1.2943E-5	-1.2950E-5	-1.2960E-5	-1.2970E-5	-1.2890E-5	-4.601693E-7	-4.606414E-7	-4.605597E-7	-4.600108E-7	-4.594654E-7	  -15.0185	    8.0204	   11.8875	  -19.7516	
 -190.0000	-1.3340E-5	-1.3290E-5	-1.3340E-5	-1.3360E-5	-1.3370E-5	-4.727178E-7	-4.725964E-7	-4.728033E-7	-4.727234E-7	-4.727479E-7	  -15.0148	    7.9287	   11.8536	  -19.8567	
 -200.0000	-1.3720E-5	-1.3710E-5	-1.3690E-5	-1.3720E-5	-1.3760E-5	-4.927844E-7	-4.930402E-7	-4.928617E-7	-4.929236E-7	-4.923122E-7	  -14.9612	    8.1485	   11.8973	  -19.6411	
 -210.0000	-1.4143E-5	-1.4150E-5	-1.4150E-5	-1.4150E-5	-1.4120E-5	-5.000526E-7	-4.998745E-7	-4.999848E-7	-4.999770E-7	-5.003743E-7	  -14.9186	    8.0918	   11.8770	  -19.7055	
 -220.0000	-1.4533E-5	-1.4570E-5	-1.4580E-5	-1.4500E-5	-1.4480E-5	-5.130552E-7	-5.129519E-7	-5.127897E-7	-5.131108E-7	-5.133684E-7	  -14.8578	    7.9767	   11.8761	  -19.7970	
 -230.0000	-1.4857E-5	-1.4880E-5	-1.4830E-5	-1.4850E-5	-1.4870E-5	-5.298752E-7	-5.303580E-7	-5.302701E-7	-5.297816E-7	-5.290912E-7	  -14.8226	    7.8866	   11.8478	  -19.8956	
 -240.0000	-1.5295E-5	-1.5260E-5	-1.5280E-5	-1.5300E-5	-1.5340E-5	-5.385991E-7	-5.387058E-7	-5.383672E-7	-5.385872E-7	-5.387363E-7	  -14.8204	    7.9007	   11.8763	  -19.8568	
 -250.0000	-1.5710E-5	-1.5730E-5	-1.5710E-5	-1.5700E-5	-1.5700E-5	-5.493126E-7	-5.498512E-7	-5.497907E-7	-5.488179E-7	-5.487905E-7	  -14.8330	    7.9601	   11.8878	  -19.7988	
 -260.0000	-1.5965E-5	-1.5950E-5	-1.5950E-5	-1.5990E-5	-1.5970E-5	-5.588670E-7	-5.586576E-7	-5.586032E-7	-5.587709E-7	-5.594362E-7	  -14.8663	    7.8805	   11.8598	  -19.8887	
 -270.0000	-1.6353E-5	-1.6350E-5	-1.6310E-5	-1.6350E-5	-1.6400E-5	-5.702016E-7	-5.707207E-7	-5.705428E-7	-5.700277E-7	-5.695151E-7	  -14.9116	    7.9561	   11.8729	  -19.8163	
 -280.0000	-1.6553E-5	-1.6550E-5	-1.6560E-5	-1.6530E-5	-1.6570E-5	-5.764547E-7	-5.756681E-7	-5.764649E-7	-5.768495E-7	-5.768363E-7	  -14.9522	    8.0923	   11.8812	  -19.7010	
 -290.0000	-1.6835E-5	-1.6790E-5	-1.6830E-5	-1.6860E-5	-1.6860E-5	-5.822448E-7	-5.824012E-7	-5.825468E-7	-5.821915E-7	-5.818396E-7	  -14.9980	    8.1672	   11.8827	  -19.6406	
 -300.0000	-1.7022E-5	-1.6980E-5	-1.7000E-5	-1.7070E-5	-1.7040E-5	-5.910237E-7	-5.887495E-7	-5.906658E-7	-5.920906E-7	-5.925888E-7	  -15.0477	    8.0991	   11.8727	  -19.7040	
 -310.0000	-1.7288E-5	-1.7330E-5	-1.7280E-5	-1.7300E-5	-1.7240E-5	-5.963491E-7	-5.959528E-7	-5.967808E-7	-5.965977E-7	-5.960650E-7	  -15.0535	    8.1285	   11.8788	  -19.6749	
 -320.0000	-1.7515E-5	-1.7530E-5	-1.7500E-5	-1.7490E-5	-1.7540E-5	-6.052115E-7	-6.052305E-7	-6.053828E-7	-6.052669E-7	-6.049658E-7	  -15.0438	    8.1138	   11.8783	  -19.6869	
 -330.0000	-1.7875E-5	-1.7880E-5	-1.7910E-5	-1.7880E-5	-1.7830E-5	-6.150416E-7	-6.140754E-7	-6.145484E-7	-6.155604E-7	-6.159821E-7	  -14.9781	    8.0527	   11.8996	  -19.7143	
 -340.0000	-1.8250E-5	-1.8240E-5	-1.8220E-5	-1.8230E-5	-1.8310E-5	-6.252289E-7	-6.253837E-7	-6.253080E-7	-6.250576E-7	-6.251664E-7	  -14.8924	    7.9475	   11.8645	  -19.8314	
 -350.0000	-1.8490E-5	-1.8450E-5	-1.8460E-5	-1.8510E-5	-1.8540E-5	-6.384638E-7	-6.368615E-7	-6.376027E-7	-6.392586E-7	-6.401322E-7	  -14.8397	    8.0786	   11.8673	  -19.7254	
 -360.0000	-1.8965E-5	-1.8980E-5	-1.8980E-5	-1.8950E-5	-1.8950E-5	-6.469420E-7	-6.466172E-7	-6.465724E-7	-6.470398E-7	-6.475386E-7	  -14.7945	    8.0280	   11.8620	  -19.7704	
 -370.0000	-1.9290E-5	-1.9380E-5	-1.9290E-5	-1.9220E-5	-1.9270E-5	-6.577764E-7	-6.560440E-7	-6.574696E-7	-6.585105E-7	-6.590815E-7	  -14.7682	    8.0071	   11.8838	  -19.7657	
 -380.0000	-1.9657E-5	-1.9600E-5	-1.9670E-5	-1.9720E-5	-1.9640E-5	-6.662008E-7	-6.674352E-7	-6.665770E-7	-6.659037E-7	-6.648874E-7	  -14.8069	    8.0098	   11.8300	  -19.8160	
 -390.0000	-1.9830E-5	-1.9920E-5	-1.9870E-5	-1.9850E-5	-1.9680E-5	-6.657729E-7	-6.648062E-7	-6.652005E-7	-6.660283E-7	-6.670568E-7	  -14.8280	    7.8682	   11.8431	  -19.9147	
 -400.0000	-1.9992E-5	-2.0020E-5	-2.0000E-5	-1.9960E-5	-1.9990E-5	-6.717295E-7	-6.718516E-7	-6.717275E-7	-6.715448E-7	-6.717942E-7	  -14.8880	    8.1626	   11.8814	  -19.6455	
 -410.0000	-2.0232E-5	-2.0130E-5	-2.0190E-5	-2.0280E-5	-2.0330E-5	-6.799028E-7	-6.790028E-7	-6.798564E-7	-6.803927E-7	-6.803594E-7	  -14.9431	    8.2615	   11.8556	  -19.5928	
 -420.0000	-2.0395E-5	-2.0400E-5	-2.0410E-5	-2.0380E-5	-2.0390E-5	-6.801768E-7	-6.807211E-7	-6.802361E-7	-6.799157E-7	-6.798343E-7	  -14.9861	    8.2173	   11.8665	  -19.6169	
 -430.0000	-2.0490E-5	-2.0530E-5	-2.0530E-5	-2.0510E-5	-2.0390E-5	-6.794861E-7	-6.800001E-7	-6.795855E-7	-6.792643E-7	-6.790946E-7	  -15.0220	    7.9765	   11.8780	  -19.7953	
 -440.0000	-2.0750E-5	-2.0720E-5	-2.0800E-5	-2.0860E-5	-2.0620E-5	-6.854668E-7	-6.855935E-7	-6.854272E-7	-6.855918E-7	-6.852549E-7	  -15.0180	    8.1403	   11.8748	  -19.6695	
 -450.0000	-2.0980E-5	-2.0870E-5	-2.0970E-5	-2.0990E-5	-2.1090E-5	-7.010992E-7	-7.005515E-7	-7.009131E-7	-7.013682E-7	-7.015639E-7	  -14.9944	    8.0984	   11.8516	  -19.7251	
 -460.0000	-2.1275E-5	-2.1300E-5	-2.1290E-5	-2.1270E-5	-2.1240E-5	-7.072767E-7	-7.060466E-7	-7.070435E-7	-7.079336E-7	-7.080832E-7	  -14.9385	    8.0647	   11.8446	  -19.7584	
 -470.0000	-2.1490E-5	-2.1550E-5	-2.1490E-5	-2.1490E-5	-2.1430E-5	-7.065419E-7	-7.067755E-7	-7.064191E-7	-7.064673E-7	-7.065057E-7	  -14.8614	    8.0753	   11.8525	  -19.7425	
 -480.0000	-2.1685E-5	-2.1620E-5	-2.1640E-5	-2.1700E-5	-2.1780E-5	-7.231035E-7	-7.223705E-7	-7.230016E-7	-7.234602E-7	-7.235816E-7	  -14.7813	    7.9071	   11.8623	  -19.8653	
 -490.0000	-2.2000E-5	-2.2000E-5	-2.1950E-5	-2.1970E-5	-2.2080E-5	-7.278943E-7	-7.274903E-7	-7.278688E-7	-7.279289E-7	-7.282894E-7	  -14.7357	    7.9983	   11.8616	  -19.7942	
 -500.0000	-2.2337E-5	-2.2300E-5	-2.2290E-5	-2.2320E-5	-2.2440E-5	-7.354672E-7	-7.352846E-7	-7.351837E-7	-7.353638E-7	-7.360367E-7	  -14.7177	    8.0983	   11.8779	  -19.6995	
 -510.0000	-2.2625E-5	-2.2650E-5	-2.2560E-5	-2.2560E-5	-2.2730E-5	-7.409758E-7	-7.421177E-7	-7.413706E-7	-7.403457E-7	-7.400693E-7	  -14.7459	    7.9565	   11.8723	  -19.8166	
 -520.0000	-2.2670E-5	-2.2780E-5	-2.2650E-5	-2.2610E-5	-2.2640E-5	-7.393638E-7	-7.395225E-7	-7.392974E-7	-7.393405E-7	-7.392948E-7	  -14.7920	    7.9156	   11.8661	  -19.8549	
 -530.0000	-2.2780E-5	-2.2760E-5	-2.2720E-5	-2.2810E-5	-2.2830E-5	-7.422421E-7	-7.417175E-7	-7.422760E-7	-7.424429E-7	-7.425319E-7	  -14.8585	    8.1217	   11.8437	  -19.7145	
 -540.0000	-2.2718E-5	-2.2730E-5	-2.2670E-5	-2.2650E-5	-2.2820E-5	-7.432264E-7	-7.432086E-7	-7.433088E-7	-7.431312E-7	-7.432571E-7	  -14.9110	    7.9107	   11.8290	  -19.8949	
 -550.0000	-2.2970E-5	-2.3000E-5	-2.3020E-5	-2.2960E-5	-2.2900E-5	-7.430116E-7	-7.423125E-7	-7.428226E-7	-7.434858E-7	-7.434253E-7	  -14.9665	    7.8161	   11.8870	  -19.9129	
 -560.0000	-2.3015E-5	-2.2980E-5	-2.3010E-5	-2.3100E-5	-2.2970E-5	-7.437249E-7	-7.439124E-7	-7.438348E-7	-7.436672E-7	-7.434852E-7	  -14.9959	    8.0423	   11.8628	  -19.7584	
 -570.0000	-2.3163E-5	-2.3210E-5	-2.3200E-5	-2.3180E-5	-2.3060E-5	-7.517218E-7	-7.526301E-7	-7.522082E-7	-7.515559E-7	-7.504930E-7	  -14.9920	    8.1120	   11.8864	  -19.6804	
 -580.0000	-2.3130E-5	-2.3080E-5	-2.3110E-5	-2.3110E-5	-2.3220E-5	-7.527564E-7	-7.526249E-7	-7.524484E-7	-7.527756E-7	-7.531768E-7	  -14.9520	    8.0018	   11.8721	  -19.7811	
 -590.0000	-2.3450E-5	-2.3380E-5	-2.3430E-5	-2.3420E-5	-2.3570E-5	-7.598576E-7	-7.599841E-7	-7.599351E-7	-7.596711E-7	-7.598401E-7	  -14.8915	    8.0058	   11.8666	  -19.7834	
 -600.0000	-2.3632E-5	-2.3540E-5	-2.3600E-5	-2.3650E-5	-2.3740E-5	-7.650600E-7	-7.650175E-7	-7.649497E-7	-7.651120E-7	-7.651607E-7	  -14.8184	    8.0130	   11.8403	  -19.8033	
 -610.0000	-2.3827E-5	-2.3880E-5	-2.3820E-5	-2.3760E-5	-2.3850E-5	-7.725296E-7	-7.731016E-7	-7.728180E-7	-7.723274E-7	-7.718716E-7	  -14.7450	    8.2042	   11.8578	  -19.6357	
 -620.0000	-2.4110E-5	-2.4050E-5	-2.4070E-5	-2.4100E-5	-2.4220E-5	-7.778312E-7	-7.777411E-7	-7.777120E-7	-7.779137E-7	-7.779582E-7	  -14.7132	    7.9596	   11.8662	  -19.8202	
 -630.0000	-2.4455E-5	-2.4490E-5	-2.4490E-5	-2.4410E-5	-2.4430E-5	-7.808921E-7	-7.811684E-7	-7.807311E-7	-7.808131E-7	-7.808557E-7	  -14.7399	    8.1025	   11.8864	  -19.6880	
 -640.0000	-2.4605E-5	-2.4610E-5	-2.4630E-5	-2.4640E-5	-2.4540E-5	-7.860654E-7	-7.866262E-7	-7.863964E-7	-7.857923E-7	-7.854467E-7	  -14.7878	    7.9817	   11.8560	  -19.8127	
 -650.0000	-2.4695E-5	-2.4750E-5	-2.4710E-5	-2.4700E-5	-2.4620E-5	-7.881974E-7	-7.890221E-7	-7.886973E-7	-7.879979E-7	-7.870723E-7	  -14.8240	    8.1215	   11.8888	  -19.6706	
 -660.0000	-2.4615E-5	-2.4600E-5	-2.4600E-5	-2.4740E-5	-2.4520E-5	-7.867704E-7	-7.840981E-7	-7.854211E-7	-7.878718E-7	-7.896907E-7	  -14.8756	    7.9870	   11.8673	  -19.7976	
 -670.0000	-2.4775E-5	-2.4800E-5	-2.4820E-5	-2.4830E-5	-2.4650E-5	-7.880171E-7	-7.887822E-7	-7.882147E-7	-7.878246E-7	-7.872468E-7	  -14.9008	    7.8890	   11.8986	  -19.8442	
 -680.0000	-2.4647E-5	-2.4590E-5	-2.4680E-5	-2.4730E-5	-2.4590E-5	-7.868377E-7	-7.850047E-7	-7.868024E-7	-7.878256E-7	-7.877181E-7	  -14.9204	    8.1384	   11.9138	  -19.6330	
 -690.0000	-2.4765E-5	-2.4860E-5	-2.4760E-5	-2.4760E-5	-2.4680E-5	-7.853711E-7	-7.851571E-7	-7.855641E-7	-7.854740E-7	-7.852893E-7	  -14.9616	    8.3429	   11.9007	  -19.4847	
 -700.0000	-2.4852E-5	-2.4920E-5	-2.4900E-5	-2.4870E-5	-2.4720E-5	-7.889779E-7	-7.889396E-7	-7.893719E-7	-7.890728E-7	-7.885273E-7	  -14.9965	    8.0885	   11.9237	  -19.6627	
 -710.0000	-2.4750E-5	-2.4800E-5	-2.4760E-5	-2.4760E-5	-2.4680E-5	-7.831940E-7	-7.833297E-7	-7.832234E-7	-7.832812E-7	-7.829415E-7	  -15.0032	    8.0817	   11.8886	  -19.7022	
 -720.0000	-2.4848E-5	-2.4810E-5	-2.4800E-5	-2.4770E-5	-2.5010E-5	-7.891530E-7	-7.896045E-7	-7.890652E-7	-7.887993E-7	-7.891430E-7	  -14.9968	    8.2222	   11.8852	  -19.5948	
 -730.0000	-2.5068E-5	-2.5050E-5	-2.5070E-5	-2.5000E-5	-2.5150E-5	-7.940937E-7	-7.939058E-7	-7.941009E-7	-7.941799E-7	-7.941884E-7	  -14.9189	    8.2301	   11.9091	  -19.5653	
 -740.0000	-2.5348E-5	-2.5280E-5	-2.5360E-5	-2.5300E-5	-2.5450E-5	-8.134935E-7	-8.143223E-7	-8.137648E-7	-8.132293E-7	-8.126576E-7	  -14.8535	    8.0453	   11.8728	  -19.7462	
 -750.0000	-2.5710E-5	-2.5730E-5	-2.5700E-5	-2.5670E-5	-2.5740E-5	-8.136488E-7	-8.123831E-7	-8.135428E-7	-8.140893E-7	-8.145802E-7	  -14.7667	    8.0886	   11.8966	  -19.6890	
 -760.0000	-2.5915E-5	-2.5890E-5	-2.5880E-5	-2.5940E-5	-2.5950E-5	-8.207670E-7	-8.194602E-7	-8.195323E-7	-8.211077E-7	-8.229676E-7	  -14.7305	    8.1510	   11.8985	  -19.6380	
 -770.0000	-2.6048E-5	-2.6060E-5	-2.6040E-5	-2.6040E-5	-2.6050E-5	-8.213590E-7	-8.214974E-7	-8.218416E-7	-8.212609E-7	-8.208361E-7	  -14.7359	    8.0760	   11.8761	  -19.7188	
 -780.0000	-2.6210E-5	-2.6360E-5	-2.6280E-5	-2.6190E-5	-2.6010E-5	-8.186878E-7	-8.182260E-7	-8.185403E-7	-8.189997E-7	-8.189853E-7	  -14.7652	    8.3391	   11.8703	  -19.5173	
 -790.0000	-2.6360E-5	-2.6370E-5	-2.6430E-5	-2.6350E-5	-2.6290E-5	-8.235828E-7	-8.231583E-7	-8.228475E-7	-8.238029E-7	-8.245225E-7	  -14.8086	    8.1370	   11.8792	  -19.6677	
 -800.0000	-2.6360E-5	-2.6540E-5	-2.6440E-5	-2.6380E-5	-2.6080E-5	-8.159629E-7	-8.166455E-7	-8.162302E-7	-8.157210E-7	-8.152550E-7	  -14.8456	    8.0094	   11.8592	  -19.7878	
 -810.0000	-2.6090E-5	-2.6070E-5	-2.6080E-5	-2.6110E-5	-2.6100E-5	-8.177704E-7	-8.185273E-7	-8.178982E-7	-8.175462E-7	-8.171097E-7	  -14.9042	    7.9102	   11.8847	  -19.8411	
 -820.0000	-2.6217E-5	-2.6260E-5	-2.6330E-5	-2.6210E-5	-2.6070E-5	-8.167088E-7	-8.160941E-7	-8.163004E-7	-8.171838E-7	-8.172568E-7	  -14.9565	    7.9273	   11.8589	  -19.8528	
 -830.0000	-2.6158E-5	-2.6260E-5	-2.6220E-5	-2.6140E-5	-2.6010E-5	-8.151701E-7	-8.155118E-7	-8.151898E-7	-8.150320E-7	-8.149467E-7	  -15.0106	    8.1450	   11.8684	  -19.6720	
 -840.0000	-2.6020E-5	-2.5960E-5	-2.5970E-5	-2.5990E-5	-2.6160E-5	-8.186103E-7	-8.179503E-7	-8.183748E-7	-8.192173E-7	-8.188988E-7	  -15.0264	    8.0384	   11.8618	  -19.7623	
 -850.0000	-2.6125E-5	-2.6000E-5	-2.6040E-5	-2.6090E-5	-2.6370E-5	-8.212936E-7	-8.209306E-7	-8.208177E-7	-8.215728E-7	-8.218532E-7	  -15.0082	    8.1236	   11.8879	  -19.6699	
 -860.0000	-2.6488E-5	-2.6480E-5	-2.6470E-5	-2.6490E-5	-2.6510E-5	-8.279163E-7	-8.292876E-7	-8.282975E-7	-8.273821E-7	-8.266980E-7	  -14.9320	    8.0843	   11.8837	  -19.7049	
 -870.0000	-2.6678E-5	-2.6640E-5	-2.6700E-5	-2.6740E-5	-2.6630E-5	-8.327348E-7	-8.322477E-7	-8.321464E-7	-8.325018E-7	-8.340434E-7	  -14.8478	    8.0417	   11.8949	  -19.7275	
 -880.0000	-2.6837E-5	-2.6820E-5	-2.6850E-5	-2.6870E-5	-2.6810E-5	-8.381245E-7	-8.381685E-7	-8.382727E-7	-8.379544E-7	-8.381026E-7	  -14.7689	    7.8957	   11.8863	  -19.8509	
 -890.0000	-2.7068E-5	-2.7000E-5	-2.7000E-5	-2.6980E-5	-2.7290E-5	-8.496919E-7	-8.498153E-7	-8.496249E-7	-8.498338E-7	-8.494935E-7	  -14.7342	    7.8866	   11.9183	  -19.8270	
 -900.0000	-2.7255E-5	-2.7240E-5	-2.7170E-5	-2.7230E-5	-2.7380E-5	-8.547274E-7	-8.529518E-7	-8.531824E-7	-8.548388E-7	-8.579366E-7	  -14.7263	    7.9041	   11.8804	  -19.8500	
 -910.0000	-2.7413E-5	-2.7410E-5	-2.7340E-5	-2.7460E-5	-2.7440E-5	-8.512067E-7	-8.519576E-7	-8.512056E-7	-8.507819E-7	-8.508819E-7	  -14.7567	    7.8661	   11.8727	  -19.8874	
 -920.0000	-2.7600E-5	-2.7520E-5	-2.7650E-5	-2.7610E-5	-2.7620E-5	-8.584953E-7	-8.589793E-7	-8.587161E-7	-8.582084E-7	-8.580775E-7	  -14.7896	    7.9087	   11.8767	  -19.8500	
 -930.0000	-2.7565E-5	-2.7590E-5	-2.7600E-5	-2.7600E-5	-2.7470E-5	-8.519071E-7	-8.516748E-7	-8.516801E-7	-8.519892E-7	-8.522845E-7	  -14.8414	    8.0820	   11.8815	  -19.7088	
 -940.0000	-2.7595E-5	-2.7580E-5	-2.7690E-5	-2.7630E-5	-2.7480E-5	-8.502551E-7	-8.504925E-7	-8.505281E-7	-8.502791E-7	-8.497208E-7	  -14.8908	    8.0512	   11.8802	  -19.7344	
 -950.0000	-2.7472E-5	-2.7410E-5	-2.7490E-5	-2.7510E-5	-2.7480E-5	-8.490422E-7	-8.491999E-7	-8.491885E-7	-8.490260E-7	-8.487542E-7	  -14.9319	    7.9375	   11.8963	  -19.8083	
 -960.0000	-2.7538E-5	-2.7460E-5	-2.7520E-5	-2.7640E-5	-2.7530E-5	-8.512493E-7	-8.514425E-7	-8.511519E-7	-8.512581E-7	-8.511447E-7	  -14.9823	    7.9686	   11.8678	  -19.8115	
 -970.0000	-2.7485E-5	-2.7550E-5	-2.7520E-5	-2.7440E-5	-2.7430E-5	-8.506892E-7	-8.500014E-7	-8.503202E-7	-8.508838E-7	-8.515516E-7	  -14.9886	    7.9806	   11.8766	  -19.7935	
 -980.0000	-2.7520E-5	-2.7530E-5	-2.7470E-5	-2.7490E-5	-2.7590E-5	-8.534952E-7	-8.531582E-7	-8.536908E-7	-8.534633E-7	-8.536687E-7	  -14.9915	    8.0088	   11.8649	  -19.7827	
 -990.0000	-2.7655E-5	-2.7610E-5	-2.7650E-5	-2.7640E-5	-2.7720E-5	-8.564879E-7	-8.552236E-7	-8.560655E-7	-8.568616E-7	-8.578007E-7	  -14.9513	    8.1721	   11.8931	  -19.6266	
-1000.0000	-2.7890E-5	-2.7980E-5	-2.8000E-5	-2.7910E-5	-2.7670E-5	-8.577739E-7	-8.581206E-7	-8.578589E-7	-8.576638E-7	-8.574524E-7	  -14.8977	    7.9857	   11.8479	  -19.8174	
