38695_044_2-S_HM_XX_Unirrad
Date/Time: 2/8/2022 5:08:50 PM
Sensor Name: 38695_044_2-S_HM_XX
Station: Tesla
Annealing Status: Not Irradiated
Environment: 23.5C
Tester: Eric Spencer
Notes: cleaved at Brown

Time Delay per Ramp Step (s): 0.500

CV Time Delay per Measurement (s) :0.500

AC Voltage (V): 0.500

Current Number of measurements per voltage: 4.000

IV Time Delay per Measurement (s) :0.500


BiasVoltage	LCR_Cp_freq1	LCR_G_freq1	Temperature	Air_Temp	Humidity	Dewpoint	
   -5.0000	3.924E-10	3.540E-7	   20.0000	   30.0560	    1.4649	    0.0000	
  -10.0000	2.687E-10	4.761E-8	   20.0000	   30.0560	    1.4649	    0.0000	
  -15.0000	2.166E-10	2.919E-8	   20.0000	   30.0560	    1.4649	    0.0000	
  -20.0000	1.868E-10	2.171E-8	   20.0000	   30.0560	    1.4649	    0.0000	
  -25.0000	1.666E-10	1.789E-8	   20.0000	   30.0560	    1.4649	    0.0000	
  -30.0000	1.516E-10	1.698E-8	   20.0000	   30.0560	    1.4649	    0.0000	
  -35.0000	1.402E-10	1.262E-8	   20.0000	   30.0560	    1.4649	    0.0000	
  -40.0000	1.302E-10	1.037E-8	   20.0000	   30.0560	    1.4649	    0.0000	
  -45.0000	1.212E-10	1.236E-8	   20.0000	   30.0560	    1.4649	    0.0000	
  -50.0000	1.138E-10	8.118E-9	   20.0000	   30.0560	    1.4649	    0.0000	
  -55.0000	1.084E-10	1.006E-8	   20.0000	   30.0560	    1.4649	    0.0000	
  -60.0000	1.041E-10	7.874E-9	   20.0000	   30.0560	    1.4649	    0.0000	
  -65.0000	1.003E-10	8.524E-9	   20.0000	   30.0560	    1.4649	    0.0000	
  -70.0000	9.651E-11	1.587E-8	   20.0000	   30.0560	    1.4649	    0.0000	
  -75.0000	9.048E-11	2.139E-8	   20.0000	   30.0560	    1.4649	    0.0000	
  -80.0000	8.656E-11	9.665E-9	   20.0000	   30.0560	    1.4649	    0.0000	
  -85.0000	8.429E-11	5.298E-9	   20.0000	   30.0560	    1.4649	    0.0000	
  -90.0000	8.228E-11	5.188E-9	   20.0000	   30.0560	    1.4649	    0.0000	
  -95.0000	8.000E-11	6.938E-9	   20.0000	   30.0560	    1.4649	    0.0000	
 -100.0000	7.829E-11	3.686E-9	   20.0000	   30.0560	    1.4649	    0.0000	
 -105.0000	7.671E-11	5.129E-9	   20.0000	   30.0560	    1.4649	    0.0000	
 -110.0000	7.505E-11	4.148E-9	   20.0000	   30.0560	    1.4649	    0.0000	
 -115.0000	7.361E-11	4.463E-9	   20.0000	   30.0560	    1.4649	    0.0000	
 -120.0000	7.208E-11	5.706E-9	   20.0000	   30.0560	    1.4649	    0.0000	
 -125.0000	7.071E-11	5.486E-9	   20.0000	   30.0560	    1.4649	    0.0000	
 -130.0000	6.972E-11	3.360E-9	   20.0000	   30.0560	    1.4649	    0.0000	
 -135.0000	6.849E-11	2.536E-9	   20.0000	   30.0560	    1.4649	    0.0000	
 -140.0000	6.741E-11	2.385E-9	   20.0000	   30.0560	    1.4649	    0.0000	
 -145.0000	6.615E-11	4.875E-9	   20.0000	   30.0560	    1.4649	    0.0000	
 -150.0000	6.527E-11	5.053E-9	   20.0000	   30.0560	    1.4649	    0.0000	
 -155.0000	6.445E-11	3.610E-9	   20.0000	   30.0560	    1.4649	    0.0000	
 -160.0000	6.342E-11	4.823E-9	   20.0000	   30.0560	    1.4649	    0.0000	
 -165.0000	6.261E-11	1.766E-9	   20.0000	   30.0560	    1.4649	    0.0000	
 -170.0000	6.187E-11	4.037E-9	   20.0000	   30.0560	    1.4649	    0.0000	
 -175.0000	6.077E-11	4.340E-9	   20.0000	   30.0560	    1.4649	    0.0000	
 -180.0000	6.025E-11	2.033E-9	   20.0000	   30.0560	    1.4649	    0.0000	
 -185.0000	5.957E-11	1.461E-9	   20.0000	   30.0560	    1.4649	    0.0000	
 -190.0000	5.867E-11	1.891E-9	   20.0000	   30.0560	    1.4649	    0.0000	
 -195.0000	5.788E-11	4.228E-9	   20.0000	   30.0560	    1.4649	    0.0000	
 -200.0000	5.733E-11	2.954E-9	   20.0000	   30.0560	    1.4649	    0.0000	
 -205.0000	5.634E-11	3.731E-9	   20.0000	   30.0560	    1.4649	    0.0000	
 -210.0000	5.589E-11	3.671E-9	   20.0000	   30.0560	    1.4649	    0.0000	
 -215.0000	5.509E-11	2.624E-9	   20.0000	   30.0560	    1.4649	    0.0000	
 -220.0000	5.474E-11	2.252E-9	   20.0000	   30.0560	    1.4649	    0.0000	
 -225.0000	5.404E-11	2.587E-9	   20.0000	   30.0560	    1.4649	    0.0000	
 -230.0000	5.383E-11	3.466E-9	   20.0000	   30.0560	    1.4649	    0.0000	
 -235.0000	5.358E-11	4.258E-9	   20.0000	   30.0560	    1.4649	    0.0000	
 -240.0000	5.338E-11	4.420E-9	   20.0000	   30.0560	    1.4649	    0.0000	
 -245.0000	5.328E-11	1.111E-9	   20.0000	   30.0560	    1.4649	    0.0000	
 -250.0000	5.326E-11	3.575E-9	   20.0000	   30.0560	    1.4649	    0.0000	
 -255.0000	5.334E-11	1.623E-9	   20.0000	   30.0560	    1.4649	    0.0000	
 -260.0000	5.330E-11	1.190E-9	   20.0000	   30.0560	    1.4649	    0.0000	
 -265.0000	5.322E-11	8.921E-10	   20.0000	   30.0560	    1.4649	    0.0000	
 -270.0000	5.296E-11	2.993E-9	   20.0000	   30.0560	    1.4649	    0.0000	
 -275.0000	5.292E-11	2.871E-9	   20.0000	   30.0560	    1.4649	    0.0000	
 -280.0000	5.294E-11	3.164E-9	   20.0000	   30.0560	    1.4649	    0.0000	
 -285.0000	5.290E-11	3.692E-9	   20.0000	   30.0560	    1.4649	    0.0000	
 -290.0000	5.286E-11	2.320E-9	   20.0000	   30.0560	    1.4649	    0.0000	
 -295.0000	5.304E-11	3.889E-9	   20.0000	   30.0560	    1.4649	    0.0000	
 -300.0000	5.306E-11	1.417E-9	   20.0000	   30.0560	    1.4649	    0.0000	
 -305.0000	5.295E-11	1.537E-9	   20.0000	   30.0560	    1.4649	    0.0000	
 -310.0000	5.285E-11	2.217E-9	   20.0000	   30.0560	    1.4649	    0.0000	
 -315.0000	5.297E-11	1.252E-9	   20.0000	   30.0560	    1.4649	    0.0000	
 -320.0000	5.307E-11	1.235E-9	   20.0000	   30.0560	    1.4649	    0.0000	
 -325.0000	5.292E-11	1.350E-9	   20.0000	   30.0560	    1.4649	    0.0000	
 -330.0000	5.276E-11	3.294E-9	   20.0000	   30.0560	    1.4649	    0.0000	
 -335.0000	5.282E-11	1.437E-9	   20.0000	   30.0560	    1.4649	    0.0000	
 -340.0000	5.300E-11	2.584E-9	   20.0000	   30.0560	    1.4649	    0.0000	
 -345.0000	5.296E-11	3.207E-9	   20.0000	   30.0560	    1.4649	    0.0000	
 -350.0000	5.293E-11	1.250E-9	   20.0000	   30.0560	    1.4649	    0.0000	
 -355.0000	5.271E-11	3.454E-9	   20.0000	   30.0560	    1.4649	    0.0000	
 -360.0000	5.277E-11	1.831E-9	   20.0000	   30.0560	    1.4649	    0.0000	
 -365.0000	5.284E-11	3.257E-9	   20.0000	   30.0560	    1.4649	    0.0000	
 -370.0000	5.268E-11	3.195E-9	   20.0000	   30.0560	    1.4649	    0.0000	
 -375.0000	5.278E-11	3.760E-9	   20.0000	   30.0560	    1.4649	    0.0000	
 -380.0000	5.262E-11	3.126E-9	   20.0000	   30.0560	    1.4649	    0.0000	
 -385.0000	5.269E-11	1.906E-9	   20.0000	   30.0560	    1.4649	    0.0000	
 -390.0000	5.271E-11	3.546E-9	   20.0000	   30.0560	    1.4649	    0.0000	
 -395.0000	5.270E-11	3.357E-9	   20.0000	   30.0560	    1.4649	    0.0000	
 -400.0000	5.284E-11	3.073E-9	   20.0000	   30.0560	    1.4649	    0.0000	
 -410.0000	5.294E-11	2.444E-9	   20.0000	   30.0560	    1.4649	    0.0000	
 -420.0000	5.291E-11	1.616E-9	   20.0000	   30.0560	    1.4649	    0.0000	
 -430.0000	5.294E-11	1.508E-9	   20.0000	   30.0560	    1.4649	    0.0000	
 -440.0000	5.291E-11	1.443E-9	   20.0000	   30.0560	    1.4649	    0.0000	
 -450.0000	5.267E-11	3.621E-9	   20.0000	   30.0560	    1.4649	    0.0000	
 -460.0000	5.266E-11	1.491E-9	   20.0000	   30.0560	    1.4649	    0.0000	
 -470.0000	5.282E-11	1.475E-9	   20.0000	   30.0560	    1.4649	    0.0000	
 -480.0000	5.270E-11	3.614E-9	   20.0000	   30.0560	    1.4649	    0.0000	
 -490.0000	5.261E-11	3.833E-9	   20.0000	   30.0560	    1.4649	    0.0000	
 -500.0000	5.291E-11	1.782E-9	   20.0000	   30.0560	    1.4649	    0.0000	
 -510.0000	5.274E-11	3.150E-9	   20.0000	   30.0560	    1.4649	    0.0000	
 -520.0000	5.260E-11	3.848E-9	   20.0000	   30.0560	    1.4649	    0.0000	
 -530.0000	5.268E-11	3.894E-9	   20.0000	   30.0560	    1.4649	    0.0000	
 -540.0000	5.271E-11	8.940E-10	   20.0000	   30.0560	    1.4649	    0.0000	
 -550.0000	5.267E-11	3.520E-9	   20.0000	   30.0560	    1.4649	    0.0000	
 -560.0000	5.277E-11	8.394E-10	   20.0000	   30.0560	    1.4649	    0.0000	
 -570.0000	5.257E-11	2.125E-9	   20.0000	   30.0560	    1.4649	    0.0000	
 -580.0000	5.264E-11	1.442E-9	   20.0000	   30.0560	    1.4649	    0.0000	
 -590.0000	5.282E-11	2.095E-9	   20.0000	   30.0560	    1.4649	    0.0000	
 -600.0000	5.258E-11	3.908E-9	   20.0000	   30.0560	    1.4649	    0.0000	
