GCD Test
Bias: 5000.000000
CV_34340_039_PSS_HM_XX_DIODE_Irradiated
Date/Time: 6/30/2021 3:27:34 PM
Sensor Name: DIODE
Type: P
Annealing Status: Irradiated and Annealed
Environment: -20C
Tester: Andrew Kent

Time Delay per Ramp Step (s): 1.000

CV Time Delay per Measurement (s) :0.500

AC Voltage (V): 0.500

Current Number of measurements per voltage: 4.000

IV Time Delay per Measurement (s) :0.000


BiasVoltage	LCR_Cp_freq1000.0	LCR_Cp_freq10000.0	LCR_Rp_freq1000.0	LCR_Rp_freq10000.0	Temperature	Air_Temp	Humidity	Dewpoint	
  -10.0000	3.430E-11	1.514E-11	3.040E+6	2.203E+6	  -20.0516	   10.5081	    2.9639	  -33.0303	
  -20.0000	3.450E-11	1.500E-11	3.828E+6	2.527E+6	  -20.0465	   10.4342	    2.9665	  -33.0719	
  -30.0000	3.352E-11	1.494E-11	4.510E+6	2.790E+6	  -20.0135	   10.4528	    2.9627	  -33.0723	
  -40.0000	3.222E-11	1.490E-11	5.221E+6	3.018E+6	  -20.0135	   10.4555	    2.9516	  -33.1087	
  -50.0000	3.103E-11	1.486E-11	5.953E+6	3.239E+6	  -20.0084	   10.4237	    2.9532	  -33.1249	
  -60.0000	3.025E-11	1.482E-11	6.603E+6	3.457E+6	  -19.9931	   10.3893	    2.9462	  -33.1724	
  -70.0000	2.937E-11	1.481E-11	7.244E+6	3.645E+6	  -20.0084	   10.4361	    2.9437	  -33.1493	
  -80.0000	2.865E-11	1.479E-11	7.825E+6	3.846E+6	  -20.0135	   10.4361	    2.9336	  -33.1844	
  -90.0000	2.792E-11	1.477E-11	8.405E+6	4.045E+6	  -20.0186	   10.3503	    2.9339	  -33.2417	
 -100.0000	2.723E-11	1.477E-11	8.980E+6	4.203E+6	  -20.0160	   10.3831	    2.9295	  -33.2348	
 -110.0000	2.668E-11	1.475E-11	9.509E+6	4.390E+6	  -20.0008	   10.4054	    2.9260	  -33.2317	
 -120.0000	2.622E-11	1.475E-11	1.003E+7	4.565E+6	  -20.0084	   10.4157	    2.9295	  -33.2126	
 -130.0000	2.575E-11	1.473E-11	1.053E+7	4.759E+6	  -19.9957	   10.4604	    2.9219	  -33.2086	
 -140.0000	2.526E-11	1.472E-11	1.104E+7	4.906E+6	  -19.9931	   10.4405	    2.9194	  -33.2310	
 -150.0000	2.482E-11	1.470E-11	1.154E+7	5.107E+6	  -19.9779	   10.4632	    2.9061	  -33.2620	
 -160.0000	2.437E-11	1.468E-11	1.205E+7	5.322E+6	  -19.9601	   10.3763	    2.9061	  -33.3211	
 -170.0000	2.401E-11	1.467E-11	1.251E+7	5.517E+6	  -19.9550	   10.3832	    2.8994	  -33.3398	
 -180.0000	2.364E-11	1.464E-11	1.299E+7	5.739E+6	  -19.9473	   10.4473	    2.9058	  -33.2739	
 -190.0000	2.330E-11	1.463E-11	1.345E+7	5.946E+6	  -19.9473	   10.3673	    2.9061	  -33.3272	
 -200.0000	2.294E-11	1.460E-11	1.397E+7	6.200E+6	  -19.9499	   10.3791	    2.9035	  -33.3281	
 -210.0000	2.260E-11	1.458E-11	1.447E+7	6.452E+6	  -19.9499	   10.3920	    2.9023	  -33.3238	
 -220.0000	2.224E-11	1.456E-11	1.502E+7	6.711E+6	  -19.9601	   10.3729	    2.8770	  -33.3779	
 -230.0000	2.196E-11	1.455E-11	1.553E+7	6.978E+6	  -19.9524	   10.4146	    2.8773	  -33.3964	
 -240.0000	2.163E-11	1.452E-11	1.610E+7	7.325E+6	  -19.9550	   10.4258	    2.8795	  -33.3810	
 -250.0000	2.129E-11	1.450E-11	1.675E+7	7.686E+6	  -19.9575	   10.3659	    2.8779	  -33.4272	
 -260.0000	2.101E-11	1.448E-11	1.734E+7	8.017E+6	  -19.9575	   10.4266	    2.8817	  -33.3726	
 -270.0000	2.068E-11	1.446E-11	1.804E+7	8.417E+6	  -19.9652	   10.3841	    2.8665	  -33.4552	
 -280.0000	2.041E-11	1.445E-11	1.872E+7	8.805E+6	  -19.9779	   10.3414	    2.8688	  -33.4764	
 -290.0000	2.009E-11	1.443E-11	1.955E+7	9.279E+6	  -19.9677	   10.3076	    2.8640	  -33.5161	
 -300.0000	1.982E-11	1.442E-11	2.033E+7	9.783E+6	  -19.9702	   10.3409	    2.8703	  -33.4711	
 -310.0000	1.954E-11	1.441E-11	2.121E+7	1.022E+7	  -19.9753	   10.3941	    2.8675	  -33.4451	
 -320.0000	1.927E-11	1.439E-11	2.211E+7	1.078E+7	  -19.9779	   10.4156	    2.8729	  -33.4114	
 -330.0000	1.901E-11	1.438E-11	2.306E+7	1.144E+7	  -19.9931	   10.4651	    2.8725	  -33.3789	
 -340.0000	1.872E-11	1.437E-11	2.416E+7	1.202E+7	  -19.9982	   10.4651	    2.8713	  -33.3833	
 -350.0000	1.846E-11	1.436E-11	2.529E+7	1.263E+7	  -19.9982	   10.4005	    2.8669	  -33.4127	
 -360.0000	1.822E-11	1.435E-11	2.641E+7	1.339E+7	  -20.0059	   10.3456	    2.8498	  -33.5410	
 -370.0000	1.797E-11	1.434E-11	2.768E+7	1.424E+7	  -20.0033	   10.3817	    2.8507	  -33.5131	
 -380.0000	1.774E-11	1.433E-11	2.900E+7	1.501E+7	  -20.0135	   10.3809	    2.8457	  -33.5317	
 -390.0000	1.753E-11	1.433E-11	3.040E+7	1.582E+7	  -20.0186	   10.3896	    2.8393	  -33.5484	
 -400.0000	1.730E-11	1.432E-11	3.196E+7	1.669E+7	  -20.0237	   10.3438	    2.8336	  -33.5999	
 -410.0000	1.710E-11	1.431E-11	3.360E+7	1.770E+7	  -20.0160	   10.3157	    2.8242	  -33.6530	
 -420.0000	1.692E-11	1.431E-11	3.526E+7	1.869E+7	  -20.0287	   10.2887	    2.8210	  -33.6827	
 -430.0000	1.673E-11	1.430E-11	3.707E+7	1.972E+7	  -20.0313	   10.2808	    2.8254	  -33.6721	
 -440.0000	1.656E-11	1.429E-11	3.901E+7	2.088E+7	  -20.0364	   10.2687	    2.8140	  -33.7213	
 -450.0000	1.641E-11	1.429E-11	4.108E+7	2.197E+7	  -20.0364	   10.4152	    2.8068	  -33.6483	
 -460.0000	1.626E-11	1.428E-11	4.329E+7	2.314E+7	  -20.0389	   10.4088	    2.7985	  -33.6824	
 -470.0000	1.612E-11	1.428E-11	4.550E+7	2.432E+7	  -20.0415	   10.4088	    2.7982	  -33.6835	
 -480.0000	1.600E-11	1.427E-11	4.787E+7	2.576E+7	  -20.0440	   10.3401	    2.7799	  -33.7967	
 -490.0000	1.589E-11	1.427E-11	5.027E+7	2.701E+7	  -20.0440	   10.3403	    2.7802	  -33.7955	
 -500.0000	1.579E-11	1.427E-11	5.269E+7	2.829E+7	  -20.0287	   10.3468	    2.7720	  -33.8211	
 -510.0000	1.569E-11	1.426E-11	5.555E+7	2.971E+7	  -20.0186	   10.3353	    2.7657	  -33.8520	
 -520.0000	1.559E-11	1.426E-11	5.847E+7	3.125E+7	  -20.0033	   10.3783	    2.7587	  -33.8485	
 -530.0000	1.551E-11	1.425E-11	6.131E+7	3.272E+7	  -20.0008	   10.4492	    2.7672	  -33.7692	
 -540.0000	1.544E-11	1.425E-11	6.426E+7	3.423E+7	  -20.0008	   10.4347	    2.7631	  -33.7941	
 -550.0000	1.536E-11	1.425E-11	6.732E+7	3.564E+7	  -19.9880	   10.4241	    2.7473	  -33.8594	
 -560.0000	1.531E-11	1.425E-11	7.028E+7	3.714E+7	  -19.9804	   10.4951	    2.7476	  -33.8102	
 -570.0000	1.524E-11	1.424E-11	7.337E+7	3.868E+7	  -19.9753	   10.4827	    2.7457	  -33.8256	
 -580.0000	1.520E-11	1.424E-11	7.678E+7	4.028E+7	  -19.9982	   10.4319	    2.7498	  -33.8448	
 -590.0000	1.515E-11	1.424E-11	8.003E+7	4.152E+7	  -19.9957	   10.3745	    2.7451	  -33.9011	
 -600.0000	1.511E-11	1.424E-11	8.328E+7	4.310E+7	  -19.9931	   10.3340	    2.7438	  -33.9331	
 -610.0000	1.507E-11	1.423E-11	8.643E+7	4.447E+7	  -20.0008	   10.3316	    2.7460	  -33.9266	
 -620.0000	1.503E-11	1.423E-11	8.965E+7	4.581E+7	  -20.0135	   10.3778	    2.7404	  -33.9164	
 -630.0000	1.500E-11	1.423E-11	9.314E+7	4.729E+7	  -20.0186	   10.3617	    2.7552	  -33.8725	
 -640.0000	1.498E-11	1.423E-11	9.627E+7	4.852E+7	  -20.0160	   10.3250	    2.7413	  -33.9486	
 -650.0000	1.495E-11	1.423E-11	9.930E+7	4.982E+7	  -20.0186	   10.3299	    2.7372	  -33.9604	
 -660.0000	1.492E-11	1.423E-11	1.028E+8	5.091E+7	  -20.0084	   10.3299	    2.7328	  -33.9768	
 -670.0000	1.491E-11	1.423E-11	1.050E+8	5.212E+7	  -20.0135	   10.2832	    2.7236	  -34.0424	
 -680.0000	1.489E-11	1.423E-11	1.084E+8	5.322E+7	  -19.9804	   10.2409	    2.7049	  -34.1404	
 -690.0000	1.487E-11	1.423E-11	1.104E+8	5.406E+7	  -19.9880	   10.2503	    2.7125	  -34.1058	
 -700.0000	1.485E-11	1.422E-11	1.134E+8	5.522E+7	  -19.9957	   10.2567	    2.7024	  -34.1393	
 -710.0000	1.484E-11	1.422E-11	1.163E+8	5.601E+7	  -19.9855	   10.2835	    2.7018	  -34.1235	
 -720.0000	1.483E-11	1.422E-11	1.188E+8	5.675E+7	  -19.9880	   10.2835	    2.6923	  -34.1590	
 -730.0000	1.482E-11	1.422E-11	1.216E+8	5.728E+7	  -19.9804	   10.2774	    2.6901	  -34.1715	
 -740.0000	1.481E-11	1.422E-11	1.235E+8	5.830E+7	  -19.9880	   10.2631	    2.6879	  -34.1895	
 -750.0000	1.479E-11	1.422E-11	1.265E+8	5.890E+7	  -19.9906	   10.1920	    2.6762	  -34.2815	
 -760.0000	1.479E-11	1.422E-11	1.280E+8	5.942E+7	  -19.9957	   10.2625	    2.6711	  -34.2530	
 -770.0000	1.478E-11	1.422E-11	1.308E+8	6.009E+7	  -20.0008	   10.2907	    2.6622	  -34.2675	
 -780.0000	1.477E-11	1.422E-11	1.318E+8	6.044E+7	  -19.9982	   10.3011	    2.6724	  -34.2222	
 -790.0000	1.477E-11	1.422E-11	1.335E+8	6.086E+7	  -19.9906	   10.2959	    2.6537	  -34.2964	
 -800.0000	1.476E-11	1.422E-11	1.365E+8	6.113E+7	  -19.9982	   10.2639	    2.6518	  -34.3252	
 -810.0000	1.476E-11	1.422E-11	1.380E+8	6.173E+7	  -19.9982	   10.3275	    2.6423	  -34.3185	
 -820.0000	1.475E-11	1.422E-11	1.384E+8	6.225E+7	  -20.0109	   10.3275	    2.6379	  -34.3354	
 -830.0000	1.475E-11	1.422E-11	1.405E+8	6.193E+7	  -20.0109	   10.3794	    2.6319	  -34.3234	
 -840.0000	1.475E-11	1.422E-11	1.413E+8	6.232E+7	  -20.0109	   10.3384	    2.6363	  -34.3341	
 -850.0000	1.475E-11	1.422E-11	1.430E+8	6.269E+7	  -20.0033	   10.2946	    2.6303	  -34.3866	
 -860.0000	1.475E-11	1.422E-11	1.431E+8	6.298E+7	  -19.9931	   10.2446	    2.6331	  -34.4094	
 -870.0000	1.474E-11	1.422E-11	1.445E+8	6.321E+7	  -19.9880	   10.2786	    2.6224	  -34.4277	
 -880.0000	1.474E-11	1.422E-11	1.455E+8	6.335E+7	  -19.9855	   10.3186	    2.6132	  -34.4361	
 -890.0000	1.473E-11	1.422E-11	1.460E+8	6.319E+7	  -19.9880	   10.2977	    2.6195	  -34.4258	
 -900.0000	1.474E-11	1.422E-11	1.472E+8	6.318E+7	  -19.9982	   10.2613	    2.6015	  -34.5198	
 -910.0000	1.473E-11	1.422E-11	1.486E+8	6.293E+7	  -19.9804	   10.2751	    2.5958	  -34.5326	
 -920.0000	1.474E-11	1.422E-11	1.479E+8	6.323E+7	  -19.9855	   10.1901	    2.6015	  -34.5678	
 -930.0000	1.474E-11	1.422E-11	1.477E+8	6.312E+7	  -19.9906	   10.2393	    2.5999	  -34.5408	
 -940.0000	1.473E-11	1.422E-11	1.486E+8	6.338E+7	  -19.9855	   10.2877	    2.5825	  -34.5757	
 -950.0000	1.474E-11	1.422E-11	1.491E+8	6.302E+7	  -19.9906	   10.2589	    2.5898	  -34.5668	
 -960.0000	1.473E-11	1.422E-11	1.496E+8	6.314E+7	  -20.0008	   10.1955	    2.5952	  -34.5886	
 -970.0000	1.473E-11	1.422E-11	1.491E+8	6.281E+7	  -20.0008	   10.2514	    2.5898	  -34.5719	
 -980.0000	1.473E-11	1.422E-11	1.502E+8	6.265E+7	  -20.0008	   10.2494	    2.5860	  -34.5880	
 -990.0000	1.474E-11	1.422E-11	1.492E+8	6.245E+7	  -20.0059	   10.2427	    2.5727	  -34.6442	
-1000.0000	1.474E-11	1.422E-11	1.482E+8	6.242E+7	  -19.9931	   10.1793	    2.5715	  -34.6918	
