GCD Test
Bias: 5000.000000
IV_D0_CO138_LargeDiode_GRConnected_Irradiated_30min_at_60C
Date/Time: 8/2/2021 11:51:44 AM
Sensor Name: CO138
Type: N
Annealing Status: Irradiated, Annealed at 60C for 30 Minutes
Environment: 
Tester: Andrew Kent

Time Delay per Ramp Step (s): 0.500

CV Time Delay per Measurement (s) :0.500

AC Voltage (V): 0.500

Current Number of measurements per voltage: 4.000

IV Time Delay per Measurement (s) :0.000


BiasVoltage	Total Current_Avg	Total Current_0	Total Current_1	Total Current_2	Total Current_3	Bias Current_Avg	Bias Current_0	Bias Current_1	Bias Current_2	Bias Current_3	Temperature	Air_Temp	Humidity	Dewpoint	
    1.0000	 3.2687E-7	 3.2830E-7	 3.2840E-7	 3.2620E-7	 3.2460E-7	3.216527E-7	3.238295E-7	3.218829E-7	3.205794E-7	3.203189E-7	  -19.6192	   12.4243	    6.0784	  -24.0214	
    2.0000	 4.7827E-7	 4.8180E-7	 4.7960E-7	 4.7710E-7	 4.7460E-7	4.261716E-7	4.264426E-7	4.270544E-7	4.259107E-7	4.252786E-7	  -19.8125	   12.4243	    6.0999	  -23.9821	
    3.0000	 5.6540E-7	 5.6890E-7	 5.6710E-7	 5.6480E-7	 5.6080E-7	5.005569E-7	5.006391E-7	5.025667E-7	5.000356E-7	4.989863E-7	  -20.0415	   12.4265	    6.0651	  -24.0442	
    4.0000	 6.3750E-7	 6.3850E-7	 6.3910E-7	 6.3800E-7	 6.3440E-7	5.651067E-7	5.649346E-7	5.683066E-7	5.641186E-7	5.630670E-7	  -20.2500	   12.4162	    6.0206	  -24.1337	
    5.0000	 6.9318E-7	 6.9620E-7	 6.9410E-7	 6.9170E-7	 6.9070E-7	6.161175E-7	6.187186E-7	6.173743E-7	6.137547E-7	6.146223E-7	  -20.4560	   12.3885	    5.9235	  -24.3345	
    6.0000	 7.4703E-7	 7.4860E-7	 7.4810E-7	 7.4580E-7	 7.4560E-7	6.649642E-7	6.664723E-7	6.662709E-7	6.645652E-7	6.625483E-7	  -20.6239	   12.4518	    5.8659	  -24.3967	
    7.0000	 7.9460E-7	 7.9570E-7	 7.9450E-7	 7.9500E-7	 7.9320E-7	7.051243E-7	7.091558E-7	7.048270E-7	7.035155E-7	7.029990E-7	  -20.7994	   12.4487	    5.7739	  -24.5741	
    8.0000	 8.4047E-7	 8.4350E-7	 8.3790E-7	 8.4080E-7	 8.3970E-7	7.451679E-7	7.467880E-7	7.446988E-7	7.451996E-7	7.439854E-7	  -21.0257	   12.4946	    5.6474	  -24.7858	
    9.0000	 8.8765E-7	 8.8860E-7	 8.9400E-7	 8.8750E-7	 8.8050E-7	7.844885E-7	7.817979E-7	7.844918E-7	7.864963E-7	7.851680E-7	  -21.1503	   12.4946	    5.5731	  -24.9320	
   10.0000	 9.3197E-7	 9.2890E-7	 9.3130E-7	 9.3480E-7	 9.3290E-7	8.285798E-7	8.283349E-7	8.319381E-7	8.270682E-7	8.269778E-7	  -21.2367	   12.4270	    5.5553	  -25.0161	
   20.0000	 1.3715E-6	 1.3740E-6	 1.3720E-6	 1.3710E-6	 1.3690E-6	1.199579E-6	1.200147E-6	1.203092E-6	1.197681E-6	1.197396E-6	  -21.3156	   12.4573	    5.5319	  -25.0407	
   30.0000	 1.7260E-6	 1.7290E-6	 1.7270E-6	 1.7220E-6	 1.7260E-6	1.493405E-6	1.492970E-6	1.489373E-6	1.492028E-6	1.499249E-6	  -21.3639	   12.4566	    5.5006	  -25.1038	
   40.0000	 2.0615E-6	 2.0600E-6	 2.0610E-6	 2.0610E-6	 2.0640E-6	1.763221E-6	1.763788E-6	1.761496E-6	1.759509E-6	1.768090E-6	  -21.3944	   12.4117	    5.4358	  -25.2667	
   50.0000	 2.3585E-6	 2.3470E-6	 2.3520E-6	 2.3680E-6	 2.3670E-6	2.013500E-6	2.012176E-6	2.008409E-6	2.015668E-6	2.017746E-6	  -21.3944	   12.4326	    5.4292	  -25.2650	
   60.0000	 2.6557E-6	 2.6480E-6	 2.6650E-6	 2.6630E-6	 2.6470E-6	2.257361E-6	2.252762E-6	2.264046E-6	2.255390E-6	2.257247E-6	  -21.3639	   12.4978	    5.4219	  -25.2327	
   70.0000	 2.9228E-6	 2.9140E-6	 2.9170E-6	 2.9220E-6	 2.9380E-6	2.487439E-6	2.488537E-6	2.492616E-6	2.484727E-6	2.483878E-6	  -21.2698	   12.5177	    5.4292	  -25.2036	
   80.0000	 3.2108E-6	 3.2110E-6	 3.2090E-6	 3.2080E-6	 3.2150E-6	2.727367E-6	2.715541E-6	2.735683E-6	2.726623E-6	2.731621E-6	  -21.2037	   12.5110	    5.4165	  -25.2341	
   90.0000	 3.5070E-6	 3.4860E-6	 3.5020E-6	 3.5120E-6	 3.5280E-6	2.959148E-6	2.959697E-6	2.963458E-6	2.952456E-6	2.960979E-6	  -21.1121	   12.5163	    5.4051	  -25.2534	
  100.0000	 3.7807E-6	 3.7700E-6	 3.7640E-6	 3.7940E-6	 3.7950E-6	3.193788E-6	3.182354E-6	3.190512E-6	3.198992E-6	3.203292E-6	  -20.9494	   12.4584	    5.3833	  -25.3397	
  120.0000	 4.2777E-6	 4.2470E-6	 4.2920E-6	 4.2880E-6	 4.2840E-6	3.597562E-6	3.582121E-6	3.589764E-6	3.596017E-6	3.622346E-6	  -20.8045	   12.4547	    5.3346	  -25.4422	
  140.0000	 4.7285E-6	 4.6990E-6	 4.7300E-6	 4.7330E-6	 4.7520E-6	3.967092E-6	3.962190E-6	3.957043E-6	3.969919E-6	3.979218E-6	  -20.6671	   12.4622	    5.2849	  -25.5394	
  160.0000	 5.1767E-6	 5.1590E-6	 5.1790E-6	 5.1920E-6	 5.1770E-6	4.312254E-6	4.292026E-6	4.313369E-6	4.318301E-6	4.325318E-6	  -20.5044	   12.4914	    5.2188	  -25.6564	
  180.0000	 5.6107E-6	 5.5880E-6	 5.6110E-6	 5.6290E-6	 5.6150E-6	4.670919E-6	4.663337E-6	4.653955E-6	4.688438E-6	4.677944E-6	  -20.3390	   12.4694	    5.1973	  -25.7174	
  200.0000	 6.0043E-6	 5.9850E-6	 6.0030E-6	 6.0020E-6	 6.0270E-6	4.990362E-6	4.977944E-6	4.990936E-6	4.991182E-6	5.001384E-6	  -20.1534	   12.4931	    5.1705	  -25.7572	
  220.0000	 6.3837E-6	 6.3820E-6	 6.3710E-6	 6.3820E-6	 6.4000E-6	5.277951E-6	5.263990E-6	5.272262E-6	5.280484E-6	5.295069E-6	  -19.9931	   12.4540	    5.1505	  -25.8275	
  240.0000	 6.7647E-6	 6.7450E-6	 6.7600E-6	 6.7690E-6	 6.7850E-6	5.602237E-6	5.573533E-6	5.613344E-6	5.614092E-6	5.607977E-6	  -19.8609	   12.4800	    5.1762	  -25.7546	
  260.0000	 7.1100E-6	 7.0840E-6	 7.0940E-6	 7.1410E-6	 7.1210E-6	5.837622E-6	5.808753E-6	5.835205E-6	5.837522E-6	5.869007E-6	  -19.6726	   12.4751	    5.1907	  -25.7274	
  280.0000	 7.4317E-6	 7.4330E-6	 7.4190E-6	 7.4440E-6	 7.4310E-6	6.082092E-6	6.062796E-6	6.079988E-6	6.098513E-6	6.087071E-6	  -19.5938	   12.3919	    5.1837	  -25.8019	
  300.0000	 7.7015E-6	 7.6980E-6	 7.6980E-6	 7.6970E-6	 7.7130E-6	6.264896E-6	6.258188E-6	6.257696E-6	6.270362E-6	6.273337E-6	  -19.4996	   12.3756	    5.1632	  -25.8571	
  320.0000	 7.9660E-6	 7.9420E-6	 7.9560E-6	 7.9900E-6	 7.9760E-6	6.451728E-6	6.439458E-6	6.459868E-6	6.473284E-6	6.434304E-6	  -19.4106	   12.3420	    5.1205	  -25.9719	
  340.0000	 8.2045E-6	 8.1920E-6	 8.2110E-6	 8.1950E-6	 8.2200E-6	6.625958E-6	6.618072E-6	6.645490E-6	6.635074E-6	6.605194E-6	  -19.3063	   12.4436	    5.0392	  -26.0738	
  360.0000	 8.4265E-6	 8.4360E-6	 8.4150E-6	 8.4090E-6	 8.4460E-6	6.792680E-6	6.819699E-6	6.788793E-6	6.792755E-6	6.769472E-6	  -19.2681	   12.4436	    5.0130	  -26.1308	
  380.0000	 8.6117E-6	 8.6480E-6	 8.6070E-6	 8.5970E-6	 8.5950E-6	6.852440E-6	6.842172E-6	6.854547E-6	6.848658E-6	6.864382E-6	  -19.2503	   12.4074	    4.9965	  -26.1926	
  400.0000	 8.7305E-6	 8.7520E-6	 8.7120E-6	 8.7400E-6	 8.7180E-6	6.900489E-6	6.899275E-6	6.877497E-6	6.913373E-6	6.911810E-6	  -19.2350	   12.3752	    4.9456	  -26.3272	
  420.0000	 8.8658E-6	 8.8920E-6	 8.8730E-6	 8.8430E-6	 8.8550E-6	6.973510E-6	6.972864E-6	6.993212E-6	6.965671E-6	6.962292E-6	  -19.2478	   12.4081	    4.9380	  -26.3204	
  440.0000	 8.9915E-6	 9.0380E-6	 8.9900E-6	 8.9960E-6	 8.9420E-6	6.979795E-6	6.968544E-6	6.971685E-6	6.988607E-6	6.990344E-6	  -19.2707	   12.4141	    4.9250	  -26.3448	
  460.0000	 9.0543E-6	 9.0750E-6	 9.0630E-6	 9.0390E-6	 9.0400E-6	6.981717E-6	6.977009E-6	6.999925E-6	6.981084E-6	6.968850E-6	  -19.3266	   12.4071	    4.9039	  -26.3967	
  480.0000	 9.2010E-6	 9.1910E-6	 9.2570E-6	 9.1880E-6	 9.1680E-6	6.979253E-6	6.999046E-6	6.977086E-6	6.962237E-6	6.978643E-6	  -19.3572	   12.3743	    4.8928	  -26.4447	
  500.0000	 9.2337E-6	 9.2710E-6	 9.2370E-6	 9.2300E-6	 9.1970E-6	6.935859E-6	6.926670E-6	6.922263E-6	6.939455E-6	6.955047E-6	  -19.4437	   12.3084	    4.8545	  -26.5772	
  520.0000	 9.3497E-6	 9.3520E-6	 9.3510E-6	 9.3410E-6	 9.3550E-6	6.951907E-6	6.948775E-6	6.932911E-6	6.979791E-6	6.946152E-6	  -19.5225	   12.2994	    4.8096	  -26.6845	
  540.0000	 9.4485E-6	 9.5100E-6	 9.4570E-6	 9.3970E-6	 9.4300E-6	6.925639E-6	6.928498E-6	6.934307E-6	6.920868E-6	6.918884E-6	  -19.5912	   12.2993	    4.8017	  -26.7024	
  560.0000	 9.5518E-6	 9.5870E-6	 9.5360E-6	 9.5460E-6	 9.5380E-6	6.822661E-6	6.827170E-6	6.831566E-6	6.815220E-6	6.816689E-6	  -19.7082	   12.2776	    4.7751	  -26.7781	
  580.0000	 9.6830E-6	 9.6950E-6	 9.6690E-6	 9.7100E-6	 9.6580E-6	6.811102E-6	6.802700E-6	6.809184E-6	6.823426E-6	6.809097E-6	  -19.7718	   12.3181	    4.7435	  -26.8213	
  600.0000	 9.8583E-6	 9.8750E-6	 9.8540E-6	 9.8710E-6	 9.8330E-6	6.755653E-6	6.767455E-6	6.783697E-6	6.749303E-6	6.722158E-6	  -19.8481	   12.3208	    4.7163	  -26.8816	
  620.0000	 1.0087E-5	 1.0060E-5	 1.0080E-5	 1.0120E-5	 1.0090E-5	6.721030E-6	6.757434E-6	6.732052E-6	6.711473E-6	6.683161E-6	  -19.9753	   12.3035	    4.6546	  -27.0364	
  640.0000	 1.0303E-5	 1.0300E-5	 1.0310E-5	 1.0330E-5	 1.0270E-5	6.659950E-6	6.663011E-6	6.665153E-6	6.663388E-6	6.648249E-6	  -20.0262	   12.3035	    4.6309	  -27.0917	
  660.0000	 1.0610E-5	 1.0670E-5	 1.0610E-5	 1.0580E-5	 1.0580E-5	6.626161E-6	6.650682E-6	6.635035E-6	6.613758E-6	6.605170E-6	  -20.1330	   12.3403	    4.5898	  -27.1619	
  680.0000	 1.0935E-5	 1.0920E-5	 1.0930E-5	 1.0960E-5	 1.0930E-5	6.621866E-6	6.640493E-6	6.625760E-6	6.597982E-6	6.623230E-6	  -20.1814	   12.3271	    4.5765	  -27.2026	
  700.0000	 1.1287E-5	 1.1310E-5	 1.1310E-5	 1.1260E-5	 1.1270E-5	6.572606E-6	6.580038E-6	6.575930E-6	6.572612E-6	6.561846E-6	  -20.2348	   12.3158	    4.5443	  -27.2870	
  720.0000	 1.1763E-5	 1.1760E-5	 1.1730E-5	 1.1760E-5	 1.1800E-5	6.533462E-6	6.530154E-6	6.530464E-6	6.531214E-6	6.542017E-6	  -20.3162	   12.3050	    4.5142	  -27.3662	
  740.0000	 1.2325E-5	 1.2310E-5	 1.2330E-5	 1.2340E-5	 1.2320E-5	6.541223E-6	6.537692E-6	6.519431E-6	6.558972E-6	6.548795E-6	  -20.3569	   12.3141	    4.5199	  -27.3462	
  760.0000	 1.2848E-5	 1.2810E-5	 1.2850E-5	 1.2880E-5	 1.2850E-5	6.561939E-6	6.578171E-6	6.564871E-6	6.561204E-6	6.543511E-6	  -20.3975	   12.3118	    4.5104	  -27.3705	
  780.0000	 1.3792E-5	 1.3850E-5	 1.3800E-5	 1.3840E-5	 1.3680E-5	6.527022E-6	6.514613E-6	6.525584E-6	6.529415E-6	6.538477E-6	  -20.4230	   12.3144	    4.5231	  -27.3384	
  800.0000	 1.4375E-5	 1.4330E-5	 1.4420E-5	 1.4390E-5	 1.4360E-5	6.546436E-6	6.545129E-6	6.551931E-6	6.549510E-6	6.539173E-6	  -20.4433	   12.2285	    4.5275	  -27.3887	
  820.0000	 1.5338E-5	 1.5090E-5	 1.5380E-5	 1.5460E-5	 1.5420E-5	6.586988E-6	6.591239E-6	6.593211E-6	6.565178E-6	6.598324E-6	  -20.4484	   12.2423	    4.5202	  -27.3963	
  840.0000	 1.6092E-5	 1.5990E-5	 1.6000E-5	 1.6100E-5	 1.6280E-5	6.633016E-6	6.627359E-6	6.643629E-6	6.639781E-6	6.621296E-6	  -20.4459	   12.2391	    4.5079	  -27.4280	
  860.0000	 1.8340E-5	 1.7070E-5	 1.8310E-5	 1.9000E-5	 1.8980E-5	6.658754E-6	6.655948E-6	6.651056E-6	6.646742E-6	6.681269E-6	  -20.4332	   12.2867	    4.4639	  -27.4998	
  880.0000	 2.0135E-5	 2.0400E-5	 2.0090E-5	 1.9850E-5	 2.0200E-5	6.713471E-6	6.715178E-6	6.714301E-6	6.707577E-6	6.716830E-6	  -20.4153	   12.2799	    4.4693	  -27.4917	
  900.0000	 2.1400E-5	 2.1390E-5	 2.1450E-5	 2.1380E-5	 2.1380E-5	6.769411E-6	6.770659E-6	6.778524E-6	6.755823E-6	6.772637E-6	  -20.3899	   12.2690	    4.4715	  -27.4941	
  920.0000	 2.2418E-5	 2.1940E-5	 2.2420E-5	 2.2640E-5	 2.2670E-5	6.856177E-6	6.863512E-6	6.891213E-6	6.847794E-6	6.822188E-6	  -20.3441	   12.3038	    4.4700	  -27.4733	
  940.0000	 2.3832E-5	 2.3990E-5	 2.3750E-5	 2.3780E-5	 2.3810E-5	6.922612E-6	6.901563E-6	6.922350E-6	6.918270E-6	6.948266E-6	  -20.3162	   12.3033	    4.4617	  -27.4935	
  960.0000	 2.4805E-5	 2.4750E-5	 2.4870E-5	 2.4830E-5	 2.4770E-5	7.011101E-6	6.971325E-6	7.010745E-6	7.032101E-6	7.030234E-6	  -20.2856	   12.2690	    4.4633	  -27.5139	
  980.0000	 2.5958E-5	 2.5890E-5	 2.5870E-5	 2.5980E-5	 2.6090E-5	7.084971E-6	7.082463E-6	7.075937E-6	7.087255E-6	7.094230E-6	  -20.2144	   12.2289	    4.4981	  -27.4588	
 1000.0000	 2.6972E-5	 2.6950E-5	 2.6910E-5	 2.6980E-5	 2.7050E-5	7.147766E-6	7.140551E-6	7.152243E-6	7.150346E-6	7.147923E-6	  -20.1636	   12.2268	    4.4823	  -27.4982	
 1020.0000	 2.8132E-5	 2.8090E-5	 2.8100E-5	 2.8120E-5	 2.8220E-5	7.247015E-6	7.260068E-6	7.238159E-6	7.236401E-6	7.253433E-6	  -20.1101	   12.2032	    4.4842	  -27.5103	
 1040.0000	 2.9300E-5	 2.9370E-5	 2.9300E-5	 2.9250E-5	 2.9280E-5	7.332482E-6	7.314131E-6	7.336619E-6	7.358192E-6	7.320985E-6	  -20.0669	   12.2163	    4.4918	  -27.4828	
 1060.0000	 3.0328E-5	 3.0350E-5	 3.0370E-5	 3.0330E-5	 3.0260E-5	7.404854E-6	7.384806E-6	7.408258E-6	7.419657E-6	7.406693E-6	  -19.9880	   12.2364	    4.4817	  -27.4928	
 1080.0000	 3.1457E-5	 3.1470E-5	 3.1360E-5	 3.1370E-5	 3.1630E-5	7.505822E-6	7.473043E-6	7.476998E-6	7.526118E-6	7.547130E-6	  -19.9499	   12.2091	    4.4842	  -27.5061	
 1100.0000	 3.3600E-5	 3.3540E-5	 3.3790E-5	 3.3600E-5	 3.3470E-5	7.575956E-6	7.582919E-6	7.567935E-6	7.577726E-6	7.575245E-6	  -19.8838	   12.2002	    4.4684	  -27.5505	
