GCD Test
Bias: 5000.000000
IV_34341_041_PSS_HM_XX_DIODEHALF_Irradiated
Date/Time: 9/2/2021 9:19:07 PM
Sensor Name: DIODEHALF
Type: P
Annealing Status: Irradiated and Annealed at 60C for 80 minutes
Environment: -20C
Tester: Andrew Kent

Time Delay per Ramp Step (s): 1.000

CV Time Delay per Measurement (s) :0.500

AC Voltage (V): 0.500

Current Number of measurements per voltage: 4.000

IV Time Delay per Measurement (s) :0.000


BiasVoltage	Total Current_Avg	Total Current_0	Total Current_1	Total Current_2	Total Current_3	Bias Current_Avg	Bias Current_0	Bias Current_1	Bias Current_2	Bias Current_3	Temperature	Air_Temp	Humidity	Dewpoint	
  -10.0000	-2.3945E-7	-2.3990E-7	-2.3970E-7	-2.3960E-7	-2.3860E-7	-2.390123E-7	-2.393793E-7	-2.391317E-7	-2.386037E-7	-2.389344E-7	  -19.9397	    9.3322	    5.1613	  -28.0527	
  -20.0000	-3.2305E-7	-3.2380E-7	-3.2460E-7	-3.2210E-7	-3.2170E-7	-3.237140E-7	-3.235218E-7	-3.243844E-7	-3.239703E-7	-3.229793E-7	  -19.9423	    9.3621	    5.1575	  -28.0390	
  -30.0000	-3.8900E-7	-3.8940E-7	-3.8950E-7	-3.8870E-7	-3.8840E-7	-3.894939E-7	-3.892779E-7	-3.905999E-7	-3.888659E-7	-3.892318E-7	  -19.9448	    9.3519	    5.1733	  -28.0135	
  -40.0000	-4.4230E-7	-4.4200E-7	-4.4200E-7	-4.4310E-7	-4.4210E-7	-4.426051E-7	-4.434199E-7	-4.435302E-7	-4.427571E-7	-4.407131E-7	  -19.9601	    9.3445	    5.1645	  -28.0373	
  -50.0000	-4.9015E-7	-4.8940E-7	-4.8990E-7	-4.8970E-7	-4.9160E-7	-4.901439E-7	-4.907830E-7	-4.890178E-7	-4.904903E-7	-4.902844E-7	  -19.9677	    9.3353	    5.1724	  -28.0275	
  -60.0000	-5.3390E-7	-5.3550E-7	-5.3470E-7	-5.3370E-7	-5.3170E-7	-5.340199E-7	-5.361005E-7	-5.331253E-7	-5.332024E-7	-5.336515E-7	  -19.9753	    9.3000	    5.1657	  -28.0667	
  -70.0000	-5.7205E-7	-5.7410E-7	-5.7010E-7	-5.7010E-7	-5.7390E-7	-5.739296E-7	-5.730519E-7	-5.738253E-7	-5.749362E-7	-5.739050E-7	  -19.9931	    9.2729	    5.1736	  -28.0699	
  -80.0000	-6.0660E-7	-6.0780E-7	-6.0880E-7	-6.0610E-7	-6.0370E-7	-6.066921E-7	-6.045369E-7	-6.086719E-7	-6.067421E-7	-6.068173E-7	  -20.0008	    9.2408	    5.1708	  -28.0989	
  -90.0000	-6.4082E-7	-6.3890E-7	-6.3990E-7	-6.4140E-7	-6.4310E-7	-6.416114E-7	-6.418363E-7	-6.419799E-7	-6.414146E-7	-6.412148E-7	  -20.0160	    9.2489	    5.1727	  -28.0892	
 -100.0000	-6.7122E-7	-6.7390E-7	-6.7250E-7	-6.6790E-7	-6.7060E-7	-6.735132E-7	-6.739970E-7	-6.728313E-7	-6.735981E-7	-6.736265E-7	  -20.0415	    9.2364	    5.1603	  -28.1238	
 -110.0000	-7.0270E-7	-7.0220E-7	-7.0390E-7	-7.0160E-7	-7.0310E-7	-7.028230E-7	-7.044154E-7	-7.042647E-7	-7.023937E-7	-7.002182E-7	  -20.0287	    9.2537	    5.1524	  -28.1277	
 -120.0000	-7.3157E-7	-7.3300E-7	-7.3150E-7	-7.3100E-7	-7.3080E-7	-7.292856E-7	-7.306262E-7	-7.282492E-7	-7.278900E-7	-7.303769E-7	  -20.0262	    9.2809	    5.1698	  -28.0720	
 -130.0000	-7.5890E-7	-7.5800E-7	-7.5940E-7	-7.5690E-7	-7.6130E-7	-7.595961E-7	-7.590007E-7	-7.624198E-7	-7.594269E-7	-7.575369E-7	  -20.0389	    9.2772	    5.1477	  -28.1207	
 -140.0000	-7.8450E-7	-7.8550E-7	-7.8450E-7	-7.8320E-7	-7.8480E-7	-7.798722E-7	-7.851019E-7	-7.800554E-7	-7.762676E-7	-7.780639E-7	  -20.0415	    9.2783	    5.1534	  -28.1080	
 -150.0000	-8.0745E-7	-8.0440E-7	-8.0720E-7	-8.0990E-7	-8.0830E-7	-8.043204E-7	-8.073250E-7	-8.026577E-7	-8.012884E-7	-8.060103E-7	  -20.0440	    9.2783	    5.1616	  -28.0909	
 -160.0000	-8.3192E-7	-8.3260E-7	-8.3340E-7	-8.3130E-7	-8.3040E-7	-8.321971E-7	-8.334920E-7	-8.299727E-7	-8.282950E-7	-8.370287E-7	  -20.0389	    9.2530	    5.1493	  -28.1348	
 -170.0000	-8.5742E-7	-8.5630E-7	-8.5660E-7	-8.5810E-7	-8.5870E-7	-8.561533E-7	-8.551248E-7	-8.563879E-7	-8.576140E-7	-8.554865E-7	  -20.0440	    9.2687	    5.1562	  -28.1090	
 -180.0000	-8.8020E-7	-8.8360E-7	-8.8140E-7	-8.7910E-7	-8.7670E-7	-8.739522E-7	-8.737328E-7	-8.742797E-7	-8.742955E-7	-8.735009E-7	  -20.0567	    9.2641	    5.1705	  -28.0828	
 -190.0000	-9.0202E-7	-9.0000E-7	-9.0430E-7	-9.0280E-7	-9.0100E-7	-8.979868E-7	-8.996820E-7	-8.996951E-7	-8.984964E-7	-8.940737E-7	  -20.0516	    9.3093	    5.1398	  -28.1139	
 -200.0000	-9.2605E-7	-9.2620E-7	-9.2500E-7	-9.2690E-7	-9.2610E-7	-9.288173E-7	-9.280176E-7	-9.277935E-7	-9.273643E-7	-9.320939E-7	  -20.0440	    9.2499	    5.1708	  -28.0924	
 -210.0000	-9.4495E-7	-9.4690E-7	-9.4450E-7	-9.4240E-7	-9.4600E-7	-9.431976E-7	-9.401516E-7	-9.425939E-7	-9.458355E-7	-9.442094E-7	  -20.0262	    9.2818	    5.1812	  -28.0478	
 -220.0000	-9.6563E-7	-9.6810E-7	-9.6460E-7	-9.6230E-7	-9.6750E-7	-9.703981E-7	-9.686958E-7	-9.709501E-7	-9.703671E-7	-9.715794E-7	  -20.0364	    9.2978	    5.1350	  -28.1321	
 -230.0000	-9.9033E-7	-9.9020E-7	-9.8960E-7	-9.9070E-7	-9.9080E-7	-9.937678E-7	-9.896188E-7	-9.901495E-7	-9.939549E-7	-1.001348E-6	  -20.0237	    9.3078	    5.1303	  -28.1348	
 -240.0000	-1.0095E-6	-1.0080E-6	-1.0100E-6	-1.0100E-6	-1.0100E-6	-1.013907E-6	-1.016076E-6	-1.015082E-6	-1.013909E-6	-1.010561E-6	  -20.0287	    9.2356	    5.1230	  -28.2020	
 -250.0000	-1.0288E-6	-1.0280E-6	-1.0260E-6	-1.0290E-6	-1.0320E-6	-1.031728E-6	-1.029385E-6	-1.034519E-6	-1.029782E-6	-1.033228E-6	  -20.0211	    9.2406	    5.1534	  -28.1352	
 -260.0000	-1.0478E-6	-1.0450E-6	-1.0470E-6	-1.0490E-6	-1.0500E-6	-1.046629E-6	-1.043502E-6	-1.049117E-6	-1.041869E-6	-1.052027E-6	  -20.0109	    9.2801	    5.1227	  -28.1706	
 -270.0000	-1.0690E-6	-1.0700E-6	-1.0650E-6	-1.0680E-6	-1.0730E-6	-1.068410E-6	-1.072287E-6	-1.070812E-6	-1.068739E-6	-1.061803E-6	  -20.0059	    9.2734	    5.1410	  -28.1372	
 -280.0000	-1.0850E-6	-1.0860E-6	-1.0870E-6	-1.0820E-6	-1.0850E-6	-1.082961E-6	-1.080338E-6	-1.077746E-6	-1.085601E-6	-1.088158E-6	  -20.0008	    9.2043	    5.1199	  -28.2312	
 -290.0000	-1.0968E-6	-1.0990E-6	-1.0960E-6	-1.0940E-6	-1.0980E-6	-1.099156E-6	-1.094358E-6	-1.100133E-6	-1.100619E-6	-1.101514E-6	  -20.0033	    9.2588	    5.1173	  -28.1972	
 -300.0000	-1.1192E-6	-1.1200E-6	-1.1170E-6	-1.1210E-6	-1.1190E-6	-1.116984E-6	-1.117454E-6	-1.114659E-6	-1.121238E-6	-1.114587E-6	  -20.0008	    9.1854	    5.0930	  -28.3011	
 -310.0000	-1.1315E-6	-1.1340E-6	-1.1290E-6	-1.1320E-6	-1.1310E-6	-1.129021E-6	-1.128731E-6	-1.130382E-6	-1.126769E-6	-1.130204E-6	  -20.0008	    9.2294	    5.1040	  -28.2462	
 -320.0000	-1.1482E-6	-1.1540E-6	-1.1520E-6	-1.1470E-6	-1.1400E-6	-1.143210E-6	-1.139533E-6	-1.138228E-6	-1.146650E-6	-1.148430E-6	  -19.9830	    9.2555	    5.0693	  -28.3005	
 -330.0000	-1.1640E-6	-1.1650E-6	-1.1640E-6	-1.1640E-6	-1.1630E-6	-1.159420E-6	-1.163061E-6	-1.162774E-6	-1.155286E-6	-1.156560E-6	  -19.9855	    9.2048	    5.0787	  -28.3170	
 -340.0000	-1.1785E-6	-1.1800E-6	-1.1810E-6	-1.1760E-6	-1.1770E-6	-1.177278E-6	-1.174857E-6	-1.174963E-6	-1.178783E-6	-1.180510E-6	  -19.9931	    9.2760	    5.0835	  -28.2558	
 -350.0000	-1.1977E-6	-1.1970E-6	-1.1960E-6	-1.1970E-6	-1.2010E-6	-1.195969E-6	-1.199661E-6	-1.197364E-6	-1.196756E-6	-1.190096E-6	  -19.9957	    9.2942	    5.0898	  -28.2294	
 -360.0000	-1.2085E-6	-1.2100E-6	-1.2050E-6	-1.2080E-6	-1.2110E-6	-1.206794E-6	-1.208571E-6	-1.206248E-6	-1.205380E-6	-1.206978E-6	  -19.9906	    9.1977	    5.0895	  -28.2996	
 -370.0000	-1.2190E-6	-1.2250E-6	-1.2190E-6	-1.2170E-6	-1.2150E-6	-1.216593E-6	-1.216057E-6	-1.216364E-6	-1.215951E-6	-1.217999E-6	  -19.9753	    9.2326	    5.0718	  -28.3117	
 -380.0000	-1.2368E-6	-1.2370E-6	-1.2330E-6	-1.2380E-6	-1.2390E-6	-1.239869E-6	-1.247680E-6	-1.239528E-6	-1.233260E-6	-1.239006E-6	  -19.9855	    9.1473	    5.0667	  -28.3838	
 -390.0000	-1.2545E-6	-1.2520E-6	-1.2570E-6	-1.2570E-6	-1.2520E-6	-1.252940E-6	-1.248179E-6	-1.250874E-6	-1.254215E-6	-1.258491E-6	  -19.9855	    9.2419	    5.0595	  -28.3310	
 -400.0000	-1.2612E-6	-1.2630E-6	-1.2650E-6	-1.2560E-6	-1.2610E-6	-1.259675E-6	-1.258915E-6	-1.257218E-6	-1.253569E-6	-1.268998E-6	  -19.9804	    9.1033	    5.0512	  -28.4482	
 -410.0000	-1.2747E-6	-1.2720E-6	-1.2750E-6	-1.2750E-6	-1.2770E-6	-1.267278E-6	-1.272360E-6	-1.266692E-6	-1.266069E-6	-1.263989E-6	  -19.9702	    9.0539	    5.0651	  -28.4544	
 -420.0000	-1.2837E-6	-1.2870E-6	-1.2830E-6	-1.2820E-6	-1.2830E-6	-1.278450E-6	-1.279683E-6	-1.277437E-6	-1.277205E-6	-1.279476E-6	  -19.9702	    9.0572	    5.0560	  -28.4714	
 -430.0000	-1.2930E-6	-1.2920E-6	-1.2910E-6	-1.2960E-6	-1.2930E-6	-1.292304E-6	-1.289721E-6	-1.293985E-6	-1.293358E-6	-1.292152E-6	  -19.9753	    9.1591	    5.0376	  -28.4368	
 -440.0000	-1.3058E-6	-1.3030E-6	-1.3090E-6	-1.3030E-6	-1.3080E-6	-1.307747E-6	-1.306535E-6	-1.305296E-6	-1.311178E-6	-1.307980E-6	  -19.9779	    9.1591	    5.0380	  -28.4361	
 -450.0000	-1.3123E-6	-1.3110E-6	-1.3150E-6	-1.3100E-6	-1.3130E-6	-1.315338E-6	-1.315594E-6	-1.315961E-6	-1.316392E-6	-1.313406E-6	  -19.9753	    9.1951	    5.0275	  -28.4323	
 -460.0000	-1.3257E-6	-1.3270E-6	-1.3290E-6	-1.3230E-6	-1.3240E-6	-1.326293E-6	-1.328244E-6	-1.322779E-6	-1.326766E-6	-1.327381E-6	  -19.9855	    9.2279	    5.0174	  -28.4302	
 -470.0000	-1.3383E-6	-1.3390E-6	-1.3370E-6	-1.3380E-6	-1.3390E-6	-1.334238E-6	-1.337900E-6	-1.331436E-6	-1.330156E-6	-1.337461E-6	  -19.9855	    9.2022	    5.0123	  -28.4595	
 -480.0000	-1.3493E-6	-1.3500E-6	-1.3490E-6	-1.3480E-6	-1.3500E-6	-1.348547E-6	-1.345298E-6	-1.350828E-6	-1.351383E-6	-1.346678E-6	  -19.9982	    9.2022	    4.9930	  -28.5006	
 -490.0000	-1.3560E-6	-1.3560E-6	-1.3580E-6	-1.3510E-6	-1.3590E-6	-1.352801E-6	-1.356936E-6	-1.353534E-6	-1.350691E-6	-1.350044E-6	  -20.0008	    9.1812	    4.9972	  -28.5070	
 -500.0000	-1.3652E-6	-1.3680E-6	-1.3680E-6	-1.3640E-6	-1.3610E-6	-1.360725E-6	-1.368910E-6	-1.360522E-6	-1.357766E-6	-1.355704E-6	  -19.9906	    9.1704	    4.9924	  -28.5249	
 -510.0000	-1.3722E-6	-1.3750E-6	-1.3730E-6	-1.3670E-6	-1.3740E-6	-1.367460E-6	-1.368260E-6	-1.365931E-6	-1.368562E-6	-1.367087E-6	  -19.9906	    9.1244	    4.9839	  -28.5762	
 -520.0000	-1.3852E-6	-1.3840E-6	-1.3880E-6	-1.3850E-6	-1.3840E-6	-1.386818E-6	-1.378745E-6	-1.393694E-6	-1.388092E-6	-1.386741E-6	  -19.9880	    9.1244	    4.9779	  -28.5890	
 -530.0000	-1.3945E-6	-1.3910E-6	-1.3960E-6	-1.3950E-6	-1.3960E-6	-1.385709E-6	-1.386695E-6	-1.383962E-6	-1.387782E-6	-1.384395E-6	  -19.9931	    9.1733	    4.9522	  -28.6089	
 -540.0000	-1.4012E-6	-1.4030E-6	-1.4030E-6	-1.3990E-6	-1.4000E-6	-1.404980E-6	-1.405276E-6	-1.405906E-6	-1.406000E-6	-1.402738E-6	  -19.9982	    9.1839	    4.9374	  -28.6333	
 -550.0000	-1.4100E-6	-1.4040E-6	-1.4100E-6	-1.4100E-6	-1.4160E-6	-1.413414E-6	-1.415924E-6	-1.414543E-6	-1.409373E-6	-1.413815E-6	  -20.0211	    9.1915	    4.9529	  -28.5944	
 -560.0000	-1.4165E-6	-1.4240E-6	-1.4190E-6	-1.4110E-6	-1.4120E-6	-1.417881E-6	-1.418708E-6	-1.416851E-6	-1.421650E-6	-1.414316E-6	  -20.0186	    9.1915	    4.9424	  -28.6169	
 -570.0000	-1.4245E-6	-1.4210E-6	-1.4270E-6	-1.4280E-6	-1.4220E-6	-1.420882E-6	-1.416319E-6	-1.417672E-6	-1.420241E-6	-1.429297E-6	  -20.0237	    9.1343	    4.9466	  -28.6492	
 -580.0000	-1.4335E-6	-1.4350E-6	-1.4320E-6	-1.4330E-6	-1.4340E-6	-1.433280E-6	-1.433010E-6	-1.433249E-6	-1.433736E-6	-1.433124E-6	  -20.0338	    9.0902	    4.9412	  -28.6924	
 -590.0000	-1.4435E-6	-1.4480E-6	-1.4410E-6	-1.4430E-6	-1.4420E-6	-1.443501E-6	-1.442949E-6	-1.442860E-6	-1.445091E-6	-1.443104E-6	  -20.0211	    9.1182	    4.9301	  -28.6962	
 -600.0000	-1.4518E-6	-1.4510E-6	-1.4540E-6	-1.4520E-6	-1.4500E-6	-1.453361E-6	-1.446236E-6	-1.451678E-6	-1.460098E-6	-1.455431E-6	  -20.0237	    9.0775	    4.9314	  -28.7227	
 -610.0000	-1.4630E-6	-1.4610E-6	-1.4640E-6	-1.4630E-6	-1.4640E-6	-1.458272E-6	-1.457901E-6	-1.461061E-6	-1.459425E-6	-1.454699E-6	  -20.0313	    9.0583	    4.9326	  -28.7338	
 -620.0000	-1.4732E-6	-1.4710E-6	-1.4740E-6	-1.4790E-6	-1.4690E-6	-1.464890E-6	-1.462994E-6	-1.467527E-6	-1.458945E-6	-1.470094E-6	  -20.0364	    9.1302	    4.9197	  -28.7102	
 -630.0000	-1.4725E-6	-1.4690E-6	-1.4720E-6	-1.4740E-6	-1.4750E-6	-1.473733E-6	-1.475870E-6	-1.471180E-6	-1.475185E-6	-1.472695E-6	  -20.0287	    9.0742	    4.9070	  -28.7778	
 -640.0000	-1.4895E-6	-1.4880E-6	-1.4890E-6	-1.4930E-6	-1.4880E-6	-1.491858E-6	-1.490940E-6	-1.496668E-6	-1.492773E-6	-1.487050E-6	  -20.0389	    9.0777	    4.8830	  -28.8274	
 -650.0000	-1.4883E-6	-1.4880E-6	-1.4850E-6	-1.4850E-6	-1.4950E-6	-1.494406E-6	-1.491513E-6	-1.494030E-6	-1.494718E-6	-1.497364E-6	  -20.0287	    9.1243	    4.8849	  -28.7899	
 -660.0000	-1.5038E-6	-1.5050E-6	-1.5030E-6	-1.5000E-6	-1.5070E-6	-1.503124E-6	-1.508175E-6	-1.506598E-6	-1.498577E-6	-1.499146E-6	  -20.0313	    9.0607	    4.8808	  -28.8445	
 -670.0000	-1.5167E-6	-1.5130E-6	-1.5160E-6	-1.5170E-6	-1.5210E-6	-1.518586E-6	-1.520381E-6	-1.515264E-6	-1.523060E-6	-1.515640E-6	  -20.0237	    9.1076	    4.8605	  -28.8550	
 -680.0000	-1.5282E-6	-1.5260E-6	-1.5260E-6	-1.5310E-6	-1.5300E-6	-1.529136E-6	-1.523474E-6	-1.528163E-6	-1.528707E-6	-1.536200E-6	  -20.0135	    9.1091	    4.8416	  -28.8955	
 -690.0000	-1.5418E-6	-1.5430E-6	-1.5430E-6	-1.5410E-6	-1.5400E-6	-1.539065E-6	-1.534003E-6	-1.547625E-6	-1.537181E-6	-1.537451E-6	  -19.9982	    8.9822	    4.8242	  -29.0247	
 -700.0000	-1.5445E-6	-1.5470E-6	-1.5440E-6	-1.5450E-6	-1.5420E-6	-1.545294E-6	-1.546782E-6	-1.545612E-6	-1.544515E-6	-1.544267E-6	  -19.9982	    8.9183	    4.8292	  -29.0594	
 -710.0000	-1.5518E-6	-1.5560E-6	-1.5510E-6	-1.5480E-6	-1.5520E-6	-1.549987E-6	-1.549727E-6	-1.546772E-6	-1.554923E-6	-1.548525E-6	  -19.9779	    9.0048	    4.8175	  -29.0232	
 -720.0000	-1.5555E-6	-1.5590E-6	-1.5540E-6	-1.5560E-6	-1.5530E-6	-1.555506E-6	-1.552092E-6	-1.550118E-6	-1.563151E-6	-1.556663E-6	  -19.9804	    9.1260	    4.8257	  -28.9182	
 -730.0000	-1.5645E-6	-1.5670E-6	-1.5640E-6	-1.5640E-6	-1.5630E-6	-1.561304E-6	-1.566929E-6	-1.561442E-6	-1.560163E-6	-1.556680E-6	  -19.9702	    9.1260	    4.8295	  -28.9098	
 -740.0000	-1.5778E-6	-1.5750E-6	-1.5760E-6	-1.5790E-6	-1.5810E-6	-1.577722E-6	-1.577568E-6	-1.583728E-6	-1.575441E-6	-1.574153E-6	  -19.9626	    9.0893	    4.8191	  -28.9591	
 -750.0000	-1.5788E-6	-1.5770E-6	-1.5760E-6	-1.5770E-6	-1.5850E-6	-1.582104E-6	-1.579789E-6	-1.582735E-6	-1.584459E-6	-1.581431E-6	  -19.9677	    9.2106	    4.8197	  -28.8708	
 -760.0000	-1.5918E-6	-1.5890E-6	-1.5940E-6	-1.5920E-6	-1.5920E-6	-1.589870E-6	-1.583865E-6	-1.587494E-6	-1.594328E-6	-1.593794E-6	  -19.9550	    9.1415	    4.8166	  -28.9273	
 -770.0000	-1.6030E-6	-1.5960E-6	-1.6020E-6	-1.6090E-6	-1.6050E-6	-1.597122E-6	-1.599965E-6	-1.599165E-6	-1.598466E-6	-1.590892E-6	  -19.9524	    9.1587	    4.8087	  -28.9324	
 -780.0000	-1.6042E-6	-1.6040E-6	-1.6130E-6	-1.6050E-6	-1.5950E-6	-1.603270E-6	-1.598862E-6	-1.600980E-6	-1.608546E-6	-1.604693E-6	  -19.9575	    9.1074	    4.8001	  -28.9881	
 -790.0000	-1.6107E-6	-1.6090E-6	-1.6080E-6	-1.6130E-6	-1.6130E-6	-1.611610E-6	-1.615339E-6	-1.610495E-6	-1.608757E-6	-1.611848E-6	  -19.9575	    9.0783	    4.7891	  -29.0334	
 -800.0000	-1.6152E-6	-1.6180E-6	-1.6180E-6	-1.6140E-6	-1.6110E-6	-1.618890E-6	-1.618414E-6	-1.613123E-6	-1.627127E-6	-1.616898E-6	  -19.9677	    9.0948	    4.7913	  -29.0167	
 -810.0000	-1.6267E-6	-1.6270E-6	-1.6260E-6	-1.6280E-6	-1.6260E-6	-1.613336E-6	-1.612214E-6	-1.615233E-6	-1.611612E-6	-1.614285E-6	  -19.9652	    9.0758	    4.7827	  -29.0492	
 -820.0000	-1.6290E-6	-1.6290E-6	-1.6310E-6	-1.6280E-6	-1.6280E-6	-1.626562E-6	-1.635338E-6	-1.626929E-6	-1.624710E-6	-1.619273E-6	  -19.9677	    8.9847	    4.7732	  -29.1355	
 -830.0000	-1.6357E-6	-1.6300E-6	-1.6330E-6	-1.6390E-6	-1.6410E-6	-1.631416E-6	-1.630883E-6	-1.631975E-6	-1.630182E-6	-1.632623E-6	  -19.9880	    8.9604	    4.7859	  -29.1249	
 -840.0000	-1.6380E-6	-1.6420E-6	-1.6390E-6	-1.6400E-6	-1.6310E-6	-1.634963E-6	-1.632587E-6	-1.639823E-6	-1.631709E-6	-1.635732E-6	  -19.9931	    8.9891	    4.7732	  -29.1324	
 -850.0000	-1.6453E-6	-1.6420E-6	-1.6450E-6	-1.6490E-6	-1.6450E-6	-1.648476E-6	-1.640678E-6	-1.644827E-6	-1.657351E-6	-1.651046E-6	  -20.0109	    8.9392	    4.7619	  -29.1934	
 -860.0000	-1.6485E-6	-1.6480E-6	-1.6500E-6	-1.6500E-6	-1.6460E-6	-1.648378E-6	-1.645467E-6	-1.649865E-6	-1.651219E-6	-1.646960E-6	  -20.0109	    8.9546	    4.7445	  -29.2211	
 -870.0000	-1.6595E-6	-1.6660E-6	-1.6580E-6	-1.6580E-6	-1.6560E-6	-1.655600E-6	-1.651516E-6	-1.650761E-6	-1.658341E-6	-1.661783E-6	  -20.0237	    8.9524	    4.7479	  -29.2149	
 -880.0000	-1.6612E-6	-1.6590E-6	-1.6610E-6	-1.6620E-6	-1.6630E-6	-1.661211E-6	-1.659976E-6	-1.666861E-6	-1.661349E-6	-1.656657E-6	  -20.0313	    9.0053	    4.7372	  -29.2011	
 -890.0000	-1.6767E-6	-1.6830E-6	-1.6730E-6	-1.6730E-6	-1.6780E-6	-1.670571E-6	-1.672866E-6	-1.669374E-6	-1.673968E-6	-1.666078E-6	  -20.0237	    8.9276	    4.7505	  -29.2271	
 -900.0000	-1.6802E-6	-1.6810E-6	-1.6800E-6	-1.6870E-6	-1.6730E-6	-1.677876E-6	-1.670133E-6	-1.677767E-6	-1.678599E-6	-1.685006E-6	  -20.0287	    8.9265	    4.7413	  -29.2484	
 -910.0000	-1.6845E-6	-1.6870E-6	-1.6860E-6	-1.6840E-6	-1.6810E-6	-1.686112E-6	-1.683301E-6	-1.692585E-6	-1.678690E-6	-1.689870E-6	  -20.0237	    8.9482	    4.7423	  -29.2307	
 -920.0000	-1.6930E-6	-1.6900E-6	-1.6870E-6	-1.6980E-6	-1.6970E-6	-1.687695E-6	-1.694751E-6	-1.691570E-6	-1.684671E-6	-1.679789E-6	  -20.0338	    8.9281	    4.7413	  -29.2472	
 -930.0000	-1.7008E-6	-1.7000E-6	-1.7010E-6	-1.6990E-6	-1.7030E-6	-1.693958E-6	-1.700030E-6	-1.696452E-6	-1.690967E-6	-1.688382E-6	  -20.0389	    8.9102	    4.7486	  -29.2437	
 -940.0000	-1.7070E-6	-1.7130E-6	-1.7090E-6	-1.7000E-6	-1.7060E-6	-1.704438E-6	-1.697432E-6	-1.700037E-6	-1.717590E-6	-1.702694E-6	  -20.0313	    8.8636	    4.7343	  -29.3089	
 -950.0000	-1.7175E-6	-1.7160E-6	-1.7250E-6	-1.7160E-6	-1.7130E-6	-1.712138E-6	-1.710260E-6	-1.709912E-6	-1.711590E-6	-1.716790E-6	  -20.0160	    8.8623	    4.7204	  -29.3410	
 -960.0000	-1.7255E-6	-1.7240E-6	-1.7240E-6	-1.7280E-6	-1.7260E-6	-1.717428E-6	-1.722913E-6	-1.716252E-6	-1.707253E-6	-1.723296E-6	  -20.0135	    9.0392	    4.7176	  -29.2208	
 -970.0000	-1.7262E-6	-1.7350E-6	-1.7180E-6	-1.7240E-6	-1.7280E-6	-1.727726E-6	-1.728143E-6	-1.725410E-6	-1.729470E-6	-1.727880E-6	  -20.0109	    9.0392	    4.7198	  -29.2159	
 -980.0000	-1.7387E-6	-1.7440E-6	-1.7360E-6	-1.7360E-6	-1.7390E-6	-1.731832E-6	-1.735270E-6	-1.729385E-6	-1.734858E-6	-1.727816E-6	  -20.0109	    8.9693	    4.7324	  -29.2375	
 -990.0000	-1.7452E-6	-1.7360E-6	-1.7540E-6	-1.7480E-6	-1.7430E-6	-1.743215E-6	-1.740443E-6	-1.751687E-6	-1.742724E-6	-1.738006E-6	  -20.0160	    8.9728	    4.7381	  -29.2223	
-1000.0000	-1.7615E-6	-1.7640E-6	-1.7620E-6	-1.7610E-6	-1.7590E-6	-1.754278E-6	-1.756831E-6	-1.756202E-6	-1.753119E-6	-1.750959E-6	  -20.0084	    8.8855	    4.7615	  -29.2325	
