GCD Test
Bias: 5000.000000
CV_34340_039_PSS_HM_XX_DIODEHALF_Irradiated
Date/Time: 6/30/2021 5:10:41 PM
Sensor Name: DIODEHALF
Type: P
Annealing Status: Irradiated, and Annealed
Environment: RT
Tester: Andrew Kent

Time Delay per Ramp Step (s): 1.000

CV Time Delay per Measurement (s) :0.500

AC Voltage (V): 0.500

Current Number of measurements per voltage: 4.000

IV Time Delay per Measurement (s) :0.000


BiasVoltage	LCR_Cp_freq1000.0	LCR_Cp_freq10000.0	LCR_Rp_freq1000.0	LCR_Rp_freq10000.0	Temperature	Air_Temp	Humidity	Dewpoint	
  -10.0000	1.311E-11	7.174E-12	1.013E+7	6.840E+6	  -20.0109	   12.2797	    5.6866	  -24.8654	
  -20.0000	1.278E-11	7.067E-12	1.302E+7	8.216E+6	  -20.0135	   12.2807	    5.7600	  -24.7230	
  -30.0000	1.219E-11	7.023E-12	1.558E+7	9.353E+6	  -20.0033	   12.2828	    5.7710	  -24.7002	
  -40.0000	1.168E-11	6.989E-12	1.828E+7	1.035E+7	  -20.0059	   12.2678	    5.7612	  -24.7299	
  -50.0000	1.135E-11	6.960E-12	2.109E+7	1.128E+7	  -19.9957	   12.3232	    5.7824	  -24.6491	
  -60.0000	1.110E-11	6.941E-12	2.361E+7	1.216E+7	  -20.0084	   12.3057	    5.7223	  -24.7773	
  -70.0000	1.084E-11	6.928E-12	2.606E+7	1.299E+7	  -20.0135	   12.3086	    5.7404	  -24.7403	
  -80.0000	1.061E-11	6.919E-12	2.832E+7	1.375E+7	  -20.0135	   12.3086	    5.7255	  -24.7690	
  -90.0000	1.042E-11	6.913E-12	3.045E+7	1.444E+7	  -20.0186	   12.2670	    5.8466	  -24.5677	
 -100.0000	1.025E-11	6.906E-12	3.252E+7	1.516E+7	  -20.0109	   12.2756	    5.8596	  -24.5369	
 -110.0000	1.010E-11	6.904E-12	3.446E+7	1.570E+7	  -20.0109	   12.2993	    5.8729	  -24.4946	
 -120.0000	9.968E-12	6.910E-12	3.645E+7	1.634E+7	  -20.0186	   12.3124	    5.9649	  -24.3127	
 -130.0000	9.833E-12	6.905E-12	3.831E+7	1.696E+7	  -20.0237	   12.3129	    6.0187	  -24.2127	
 -140.0000	9.727E-12	6.901E-12	4.001E+7	1.756E+7	  -20.0237	   12.2888	    6.0291	  -24.2111	
 -150.0000	9.624E-12	6.898E-12	4.170E+7	1.815E+7	  -20.0135	   12.2817	    5.9447	  -24.3728	
 -160.0000	9.531E-12	6.894E-12	4.328E+7	1.874E+7	  -20.0160	   12.2852	    5.9326	  -24.3927	
 -170.0000	9.433E-12	6.888E-12	4.490E+7	1.940E+7	  -20.0059	   12.2922	    5.8539	  -24.5356	
 -180.0000	9.345E-12	6.888E-12	4.649E+7	1.984E+7	  -20.0135	   12.2778	    5.8305	  -24.5904	
 -190.0000	9.259E-12	6.881E-12	4.810E+7	2.066E+7	  -20.0059	   12.2711	    5.7985	  -24.6561	
 -200.0000	9.172E-12	6.876E-12	4.970E+7	2.131E+7	  -19.9931	   12.2807	    5.6534	  -24.9292	
 -210.0000	9.079E-12	6.871E-12	5.128E+7	2.203E+7	  -19.9931	   12.2990	    5.5879	  -25.0444	
 -220.0000	8.996E-12	6.866E-12	5.293E+7	2.282E+7	  -19.9855	   12.2903	    5.5104	  -25.2045	
 -230.0000	8.933E-12	6.861E-12	5.448E+7	2.345E+7	  -19.9804	   12.3417	    5.4813	  -25.2256	
 -240.0000	8.853E-12	6.856E-12	5.618E+7	2.425E+7	  -19.9804	   12.3026	    5.4374	  -25.3424	
 -250.0000	8.787E-12	6.852E-12	5.781E+7	2.506E+7	  -19.9906	   12.3524	    5.3843	  -25.4143	
 -260.0000	8.720E-12	6.847E-12	5.961E+7	2.603E+7	  -19.9957	   12.3107	    5.3725	  -25.4683	
 -270.0000	8.645E-12	6.844E-12	6.146E+7	2.687E+7	  -19.9982	   12.3015	    5.3577	  -25.5053	
 -280.0000	8.586E-12	6.840E-12	6.320E+7	2.786E+7	  -19.9982	   12.3120	    5.3403	  -25.5334	
 -290.0000	8.515E-12	6.835E-12	6.527E+7	2.885E+7	  -19.9931	   12.2967	    5.3235	  -25.5790	
 -300.0000	8.449E-12	6.832E-12	6.750E+7	2.993E+7	  -19.9830	   12.2928	    5.2957	  -25.6392	
 -310.0000	8.389E-12	6.828E-12	6.960E+7	3.115E+7	  -19.9830	   12.2878	    5.2853	  -25.6644	
 -320.0000	8.323E-12	6.825E-12	7.196E+7	3.224E+7	  -19.9931	   12.2916	    5.2862	  -25.6597	
 -330.0000	8.262E-12	6.822E-12	7.443E+7	3.351E+7	  -19.9906	   12.2969	    5.2562	  -25.7184	
 -340.0000	8.203E-12	6.819E-12	7.677E+7	3.492E+7	  -20.0033	   12.2765	    5.2321	  -25.7832	
 -350.0000	8.139E-12	6.816E-12	7.947E+7	3.610E+7	  -20.0109	   12.2910	    5.1907	  -25.8598	
 -360.0000	8.088E-12	6.814E-12	8.189E+7	3.765E+7	  -20.0059	   12.2890	    5.1597	  -25.9267	
 -370.0000	8.025E-12	6.812E-12	8.511E+7	3.917E+7	  -20.0033	   12.3046	    5.0990	  -26.0448	
 -380.0000	7.976E-12	6.810E-12	8.775E+7	4.053E+7	  -20.0135	   12.2976	    5.1056	  -26.0356	
 -390.0000	7.917E-12	6.808E-12	9.131E+7	4.212E+7	  -20.0109	   12.3221	    5.1293	  -25.9674	
 -400.0000	7.864E-12	6.806E-12	9.431E+7	4.386E+7	  -20.0109	   12.3132	    5.1129	  -26.0089	
 -410.0000	7.814E-12	6.804E-12	9.775E+7	4.540E+7	  -20.0033	   12.3340	    5.0854	  -26.0081	
 -420.0000	7.765E-12	6.802E-12	1.014E+8	4.706E+7	  -20.0059	   12.3387	    5.0686	  -26.0855	
 -430.0000	7.724E-12	6.800E-12	1.048E+8	4.891E+7	  -20.0008	   12.3138	    5.1069	  -26.0213	
 -440.0000	7.673E-12	6.799E-12	1.091E+8	5.069E+7	  -20.0008	   12.3242	    5.1338	  -25.9565	
 -450.0000	7.635E-12	6.798E-12	1.128E+8	5.250E+7	  -19.9982	   12.3146	    5.1218	  -25.9889	
 -460.0000	7.590E-12	6.796E-12	1.173E+8	5.436E+7	  -19.9906	   12.3328	    5.1534	  -25.9086	
 -470.0000	7.560E-12	6.795E-12	1.211E+8	5.622E+7	  -19.9906	   12.3200	    5.1069	  -26.0169	
 -480.0000	7.521E-12	6.794E-12	1.257E+8	5.810E+7	  -20.0008	   12.3279	    5.1180	  -25.9875	
 -490.0000	7.489E-12	6.794E-12	1.302E+8	5.990E+7	  -19.9957	   12.3169	    5.1218	  -25.9873	
 -500.0000	7.460E-12	6.792E-12	1.349E+8	6.206E+7	  -20.0033	   12.3169	    5.1211	  -25.9887	
 -510.0000	7.427E-12	6.792E-12	1.406E+8	6.351E+7	  -20.0008	   12.2776	    5.1047	  -26.0520	
 -520.0000	7.403E-12	6.790E-12	1.455E+8	6.574E+7	  -20.0109	   12.2948	    5.0993	  -26.0512	
 -530.0000	7.376E-12	6.789E-12	1.495E+8	6.781E+7	  -20.0033	   12.2970	    5.0946	  -26.0597	
 -540.0000	7.354E-12	6.788E-12	1.549E+8	6.936E+7	  -19.9957	   12.2922	    5.1199	  -26.0091	
 -550.0000	7.329E-12	6.788E-12	1.607E+8	7.156E+7	  -19.9982	   12.2924	    5.1622	  -25.9189	
 -560.0000	7.311E-12	6.787E-12	1.655E+8	7.323E+7	  -19.9906	   12.2930	    5.1230	  -26.0017	
 -570.0000	7.293E-12	6.786E-12	1.708E+8	7.503E+7	  -19.9880	   12.2995	    5.1034	  -26.0390	
 -580.0000	7.275E-12	6.786E-12	1.765E+8	7.690E+7	  -19.9931	   12.3102	    5.0904	  -26.0591	
 -590.0000	7.260E-12	6.785E-12	1.798E+8	7.859E+7	  -19.9931	   12.2931	    5.0769	  -26.1005	
 -600.0000	7.248E-12	6.784E-12	1.867E+8	8.027E+7	  -19.9957	   12.3041	    5.1009	  -26.0411	
 -610.0000	7.228E-12	6.784E-12	1.916E+8	8.170E+7	  -19.9957	   12.2706	    5.3684	  -25.5056	
 -620.0000	7.218E-12	6.784E-12	1.973E+8	8.341E+7	  -20.0033	   12.3046	    5.5319	  -25.1513	
 -630.0000	7.207E-12	6.784E-12	2.017E+8	8.491E+7	  -20.0033	   12.2785	    5.6116	  -25.0125	
 -640.0000	7.199E-12	6.783E-12	2.070E+8	8.621E+7	  -20.0109	   12.2876	    5.7410	  -24.7544	
 -650.0000	7.185E-12	6.783E-12	2.138E+8	8.787E+7	  -20.0033	   12.2997	    5.8273	  -24.5806	
 -660.0000	7.180E-12	6.783E-12	2.186E+8	8.870E+7	  -20.0084	   12.3330	    5.8564	  -24.5011	
 -670.0000	7.174E-12	6.782E-12	2.218E+8	9.012E+7	  -20.0109	   12.3268	    5.9845	  -24.2658	
 -680.0000	7.168E-12	6.782E-12	2.266E+8	9.135E+7	  -20.0109	   12.2848	    6.0032	  -24.2619	
 -690.0000	7.158E-12	6.782E-12	2.310E+8	9.234E+7	  -20.0033	   12.2726	    6.0187	  -24.2421	
 -700.0000	7.157E-12	6.782E-12	2.355E+8	9.334E+7	  -19.9982	   12.3245	    6.0402	  -24.1646	
 -710.0000	7.147E-12	6.782E-12	2.400E+8	9.408E+7	  -19.9957	   12.3461	    6.1303	  -23.9841	
 -720.0000	7.144E-12	6.782E-12	2.441E+8	9.498E+7	  -19.9931	   12.3170	    6.1407	  -23.9865	
 -730.0000	7.136E-12	6.782E-12	2.483E+8	9.582E+7	  -19.9931	   12.2870	    6.1458	  -23.9992	
 -740.0000	7.131E-12	6.782E-12	2.510E+8	9.665E+7	  -19.9931	   12.2854	    6.1648	  -23.9661	
 -750.0000	7.129E-12	6.782E-12	2.564E+8	9.716E+7	  -19.9804	   12.2728	    6.1869	  -23.9354	
 -760.0000	7.124E-12	6.782E-12	2.584E+8	9.774E+7	  -19.9855	   12.3171	    6.1708	  -23.9320	
 -770.0000	7.121E-12	6.782E-12	2.629E+8	9.811E+7	  -19.9830	   12.3109	    6.1774	  -23.9087	
 -780.0000	7.123E-12	6.782E-12	2.657E+8	9.878E+7	  -19.9830	   12.2926	    6.1221	  -24.0381	
 -790.0000	7.120E-12	6.782E-12	2.692E+8	9.909E+7	  -19.9779	   12.2827	    6.0961	  -24.0926	
 -800.0000	7.117E-12	6.782E-12	2.707E+8	9.951E+7	  -19.9855	   12.2928	    6.0806	  -24.1135	
 -810.0000	7.113E-12	6.782E-12	2.743E+8	1.000E+8	  -19.9931	   12.2848	    6.1053	  -24.0743	
 -820.0000	7.118E-12	6.782E-12	2.750E+8	1.002E+8	  -19.9880	   12.2813	    6.1230	  -24.0447	
 -830.0000	7.110E-12	6.782E-12	2.769E+8	1.002E+8	  -19.9931	   12.2817	    6.1221	  -24.0461	
 -840.0000	7.108E-12	6.782E-12	2.801E+8	1.004E+8	  -20.0033	   12.2899	    6.1306	  -24.0246	
 -850.0000	7.111E-12	6.783E-12	2.815E+8	1.006E+8	  -20.0033	   12.2953	    6.0999	  -24.0765	
 -860.0000	7.106E-12	6.783E-12	2.839E+8	1.009E+8	  -20.0084	   12.2953	    6.1218	  -24.0368	
 -870.0000	7.106E-12	6.783E-12	2.859E+8	1.007E+8	  -20.0033	   12.2935	    6.1626	  -23.9641	
 -880.0000	7.104E-12	6.783E-12	2.862E+8	1.010E+8	  -20.0008	   12.2885	    6.1401	  -24.0085	
 -890.0000	7.104E-12	6.783E-12	2.870E+8	1.008E+8	  -19.9957	   12.2818	    6.1714	  -23.9567	
 -900.0000	7.103E-12	6.784E-12	2.890E+8	1.010E+8	  -20.0033	   12.2866	    6.2546	  -23.8041	
 -910.0000	7.104E-12	6.784E-12	2.894E+8	1.007E+8	  -20.0160	   12.2901	    6.2732	  -23.7682	
 -920.0000	7.109E-12	6.784E-12	2.889E+8	1.006E+8	  -20.0186	   12.2999	    6.2543	  -23.7949	
 -930.0000	7.102E-12	6.784E-12	2.905E+8	1.002E+8	  -20.0109	   12.2990	    6.3144	  -23.6889	
 -940.0000	7.109E-12	6.784E-12	2.874E+8	1.002E+8	  -20.0211	   12.2935	    6.5060	  -23.3586	
 -950.0000	7.105E-12	6.785E-12	2.891E+8	9.965E+7	  -20.0211	   12.2805	    6.5958	  -23.2146	
 -960.0000	7.112E-12	6.785E-12	2.902E+8	9.923E+7	  -20.0160	   12.2729	    6.7151	  -23.0192	
 -970.0000	7.108E-12	6.785E-12	2.897E+8	9.902E+7	  -20.0287	   12.3007	    6.6490	  -23.1098	
 -980.0000	7.111E-12	6.785E-12	2.883E+8	9.897E+7	  -20.0135	   12.2903	    6.5670	  -23.2564	
 -990.0000	7.112E-12	6.786E-12	2.883E+8	9.857E+7	  -20.0084	   12.3171	    6.4836	  -23.3800	
-1000.0000	7.113E-12	6.786E-12	2.867E+8	9.794E+7	  -20.0211	   12.3208	    6.5193	  -23.4441	
