GCD Test
Bias: 5000.000000
IV_N4789_20_UR_DIODEQUARTER_GR_Irradiated_Annealed_60C_30min
Date/Time: 3/9/2022 7:19:44 PM
Sensor Name: 
Type: P
Annealing Status: Irradiated and Annealed at 60C for 30 minutes
Environment: 20C
Tester: Andrew Kent

Time Delay per Ramp Step (s): 0.500

CV Time Delay per Measurement (s) :0.500

AC Voltage (V): 0.500

Current Number of measurements per voltage: 1.000

IV Time Delay per Measurement (s) :0.000


BiasVoltage	Total Current_Avg	Total Current_0	Bias Current_Avg	Bias Current_0	Temperature	Air_Temp	Humidity	Dewpoint	
  -10.0000	-2.4550E-6	-2.4550E-6	-1.306771E-6	-1.306771E-6	   -0.0154	   14.5680	   29.6018	   -2.9751	
  -20.0000	-3.5220E-6	-3.5220E-6	-1.770270E-6	-1.770270E-6	   -0.0154	   14.5680	   29.5468	   -2.9751	
  -30.0000	-4.3400E-6	-4.3400E-6	-2.113593E-6	-2.113593E-6	   -0.0154	   14.5526	   29.5468	   -3.0134	
  -40.0000	-5.0190E-6	-5.0190E-6	-2.399616E-6	-2.399616E-6	   -0.0154	   14.5485	   29.5003	   -3.0381	
  -50.0000	-5.6180E-6	-5.6180E-6	-2.656680E-6	-2.656680E-6	   -0.0154	   14.5343	   29.4646	   -3.0666	
  -60.0000	-6.1590E-6	-6.1590E-6	-2.892922E-6	-2.892922E-6	   -0.0154	   14.5343	   29.4646	   -3.0666	
  -70.0000	-6.6420E-6	-6.6420E-6	-3.103481E-6	-3.103481E-6	   -0.0128	   14.5413	   29.4127	   -3.0841	
  -80.0000	-7.0890E-6	-7.0890E-6	-3.307136E-6	-3.307136E-6	   -0.0128	   14.5474	   29.3934	   -3.0876	
  -90.0000	-7.5350E-6	-7.5350E-6	-3.505892E-6	-3.505892E-6	   -0.0128	   14.5474	   29.3934	   -3.0876	
 -100.0000	-7.9400E-6	-7.9400E-6	-3.689957E-6	-3.689957E-6	   -0.0102	   14.5466	   29.3495	   -3.1084	
 -110.0000	-8.3330E-6	-8.3330E-6	-3.868851E-6	-3.868851E-6	   -0.0128	   14.5394	   29.3330	   -3.1222	
 -120.0000	-8.7150E-6	-8.7150E-6	-4.035649E-6	-4.035649E-6	   -0.0128	   14.5394	   29.3330	   -3.1222	
 -130.0000	-9.0840E-6	-9.0840E-6	-4.190023E-6	-4.190023E-6	   -0.0102	   14.5456	   29.2973	   -3.1331	
 -140.0000	-9.4220E-6	-9.4220E-6	-4.351971E-6	-4.351971E-6	   -0.0102	   14.5454	   29.2808	   -3.1408	
 -150.0000	-9.7440E-6	-9.7440E-6	-4.491861E-6	-4.491861E-6	   -0.0102	   14.5454	   29.2808	   -3.1408	
 -160.0000	-1.0050E-5	-1.0050E-5	-4.614894E-6	-4.614894E-6	   -0.0051	   14.5511	   29.2486	   -3.1506	
 -170.0000	-1.0340E-5	-1.0340E-5	-4.731555E-6	-4.731555E-6	   -0.0051	   14.5278	   29.2182	   -3.1847	
 -180.0000	-1.0620E-5	-1.0620E-5	-4.841358E-6	-4.841358E-6	   -0.0051	   14.5278	   29.2182	   -3.1847	
 -190.0000	-1.0860E-5	-1.0860E-5	-4.939061E-6	-4.939061E-6	   -0.0077	   14.5464	   29.1847	   -3.1840	
 -200.0000	-1.1130E-5	-1.1130E-5	-5.022085E-6	-5.022085E-6	   -0.0077	   14.5288	   29.1660	   -3.2078	
 -220.0000	-1.1580E-5	-1.1580E-5	-5.196630E-6	-5.196630E-6	   -0.0077	   14.5288	   29.1660	   -3.2078	
 -240.0000	-1.1950E-5	-1.1950E-5	-5.332287E-6	-5.332287E-6	   -0.0077	   14.5379	   29.1572	   -3.2040	
 -260.0000	-1.2320E-5	-1.2320E-5	-5.453760E-6	-5.453760E-6	   -0.0051	   14.5402	   29.1335	   -3.2129	
 -280.0000	-1.2680E-5	-1.2680E-5	-5.571615E-6	-5.571615E-6	   -0.0051	   14.5402	   29.1335	   -3.2129	
 -300.0000	-1.3000E-5	-1.3000E-5	-5.665698E-6	-5.665698E-6	   -0.0026	   14.5474	   29.1173	   -3.2141	
 -320.0000	-1.3330E-5	-1.3330E-5	-5.773637E-6	-5.773637E-6	    0.0026	   14.5479	   29.0984	   -3.2224	
 -340.0000	-1.3630E-5	-1.3630E-5	-5.869379E-6	-5.869379E-6	    0.0026	   14.5479	   29.0984	   -3.2224	
 -360.0000	-1.3890E-5	-1.3890E-5	-5.960550E-6	-5.960550E-6	   -0.0000	   14.5383	   29.0740	   -3.2419	
 -380.0000	-1.4180E-5	-1.4180E-5	-6.057024E-6	-6.057024E-6	    0.0026	   14.5350	   29.0664	   -3.2482	
 -400.0000	-1.4460E-5	-1.4460E-5	-6.126479E-6	-6.126479E-6	    0.0026	   14.5350	   29.0664	   -3.2482	
 -440.0000	-1.4920E-5	-1.4920E-5	-6.290475E-6	-6.290475E-6	   -0.0026	   14.5267	   29.0395	   -3.2677	
 -480.0000	-1.5450E-5	-1.5450E-5	-6.468427E-6	-6.468427E-6	   -0.0026	   14.5223	   29.0190	   -3.2810	
 -520.0000	-1.5930E-5	-1.5930E-5	-6.625839E-6	-6.625839E-6	   -0.0026	   14.5223	   29.0190	   -3.2810	
 -560.0000	-1.6430E-5	-1.6430E-5	-6.789268E-6	-6.789268E-6	   -0.0000	   14.5386	   29.0051	   -3.2734	
 -600.0000	-1.6900E-5	-1.6900E-5	-6.945720E-6	-6.945720E-6	   -0.0000	   14.5199	   29.0009	   -3.2914	
 -640.0000	-1.7440E-5	-1.7440E-5	-7.160470E-6	-7.160470E-6	   -0.0000	   14.5199	   29.0009	   -3.2914	
 -680.0000	-1.7940E-5	-1.7940E-5	-7.343832E-6	-7.343832E-6	    0.0026	   14.5086	   28.9978	   -3.3027	
 -720.0000	-1.8480E-5	-1.8480E-5	-7.537974E-6	-7.537974E-6	    0.0051	   14.5159	   29.0000	   -3.2953	
 -760.0000	-1.8960E-5	-1.8960E-5	-7.703889E-6	-7.703889E-6	    0.0051	   14.5159	   29.0000	   -3.2953	
 -800.0000	-1.9560E-5	-1.9560E-5	-7.916207E-6	-7.916207E-6	    0.0026	   14.5100	   28.9959	   -3.3023	
 -840.0000	-2.0170E-5	-2.0170E-5	-8.171122E-6	-8.171122E-6	    0.0051	   14.5136	   28.9997	   -3.2975	
 -880.0000	-2.0900E-5	-2.0900E-5	-8.396447E-6	-8.396447E-6	    0.0051	   14.5136	   28.9997	   -3.2975	
 -920.0000	-2.4070E-5	-2.4070E-5	-8.664683E-6	-8.664683E-6	    0.0026	   14.5008	   28.9911	   -3.3125	
 -960.0000	-2.6270E-5	-2.6270E-5	-8.957768E-6	-8.957768E-6	    0.0026	   14.5019	   28.9848	   -3.3144	
-1000.0000	-2.7570E-5	-2.7570E-5	-9.234714E-6	-9.234714E-6	    0.0026	   14.5019	   28.9848	   -3.3144	
