GCD Test
Bias: 5000.000000
CV_34341_012_PSS_HM_XX_DIODEHALFPSTOP_Irradiated
Date/Time: 9/8/2021 12:26:19 PM
Sensor Name: DIODEHALFPSTOP
Type: P
Annealing Status: Irradiated and Annealed at 60C for 80 min
Environment: -20C
Tester: Andrew Kent

Time Delay per Ramp Step (s): 1.000

CV Time Delay per Measurement (s) :0.500

AC Voltage (V): 0.500

Current Number of measurements per voltage: 4.000

IV Time Delay per Measurement (s) :0.000


BiasVoltage	LCR_Cp_freq1000.0	LCR_Cp_freq10000.0	LCR_Rp_freq1000.0	LCR_Rp_freq10000.0	Temperature	Air_Temp	Humidity	Dewpoint	
  -10.0000	1.507E-11	5.507E-12	6.787E+6	4.264E+6	  -19.6853	   12.3626	    6.5977	  -23.1509	
  -20.0000	1.486E-11	5.588E-12	9.039E+6	4.843E+6	  -19.7388	   12.3838	    6.5892	  -23.1498	
  -30.0000	1.416E-11	5.626E-12	1.081E+7	5.277E+6	  -19.7896	   12.4941	    6.5607	  -23.1170	
  -40.0000	1.345E-11	5.663E-12	1.245E+7	5.720E+6	  -19.8965	   12.3658	    6.5326	  -23.2598	
  -50.0000	1.288E-11	5.701E-12	1.406E+7	6.053E+6	  -19.9397	   12.3803	    6.5149	  -23.2795	
  -60.0000	1.234E-11	5.724E-12	1.576E+7	6.385E+6	  -19.9855	   12.2906	    6.5168	  -23.3423	
  -70.0000	1.185E-11	5.734E-12	1.755E+7	6.725E+6	  -20.0847	   12.2464	    6.5142	  -23.3792	
  -80.0000	1.150E-11	5.740E-12	1.919E+7	7.061E+6	  -20.1229	   12.2621	    6.5054	  -23.3828	
  -90.0000	1.120E-11	5.747E-12	2.079E+7	7.347E+6	  -20.1992	   12.2924	    6.5022	  -23.3660	
 -100.0000	1.091E-11	5.751E-12	2.235E+7	7.630E+6	  -20.2526	   12.3754	    6.5149	  -23.2831	
 -110.0000	1.065E-11	5.760E-12	2.392E+7	7.854E+6	  -20.3060	   12.3735	    6.5487	  -23.2264	
 -120.0000	1.047E-11	5.773E-12	2.543E+7	8.112E+6	  -20.3340	   12.4309	    6.5468	  -23.1874	
 -130.0000	1.030E-11	5.780E-12	2.675E+7	8.291E+6	  -20.3874	   12.4582	    6.5408	  -23.1722	
 -140.0000	1.014E-11	5.784E-12	2.798E+7	8.544E+6	  -20.4255	   12.3964	    6.5338	  -23.2351	
 -150.0000	9.969E-12	5.785E-12	2.918E+7	8.768E+6	  -20.4535	   12.3662	    6.5310	  -23.2622	
 -160.0000	9.791E-12	5.784E-12	3.036E+7	8.981E+6	  -20.4713	   12.3296	    6.5120	  -23.3218	
 -170.0000	9.690E-12	5.783E-12	3.092E+7	9.143E+6	  -20.5171	   12.2876	    6.4842	  -23.4006	
 -180.0000	9.624E-12	5.793E-12	3.169E+7	9.225E+6	  -20.5196	   12.2792	    6.4813	  -23.4117	
 -190.0000	9.486E-12	5.795E-12	3.287E+7	9.444E+6	  -20.5400	   12.2561	    6.4668	  -23.4538	
 -200.0000	9.391E-12	5.793E-12	3.385E+7	9.669E+6	  -20.5578	   12.2153	    6.4611	  -23.4937	
 -210.0000	9.372E-12	5.795E-12	3.402E+7	9.815E+6	  -20.5578	   12.2901	    6.4627	  -23.4359	
 -220.0000	9.231E-12	5.797E-12	3.572E+7	9.953E+6	  -20.5756	   12.2901	    6.4589	  -23.4425	
 -230.0000	9.156E-12	5.796E-12	3.687E+7	1.017E+7	  -20.5527	   12.3259	    6.4526	  -23.4151	
 -240.0000	9.081E-12	5.791E-12	3.808E+7	1.031E+7	  -20.5425	   12.2721	    6.4447	  -23.4805	
 -250.0000	8.977E-12	5.792E-12	3.979E+7	1.051E+7	  -20.5349	   12.2919	    6.4450	  -23.4653	
 -260.0000	8.915E-12	5.792E-12	4.147E+7	1.066E+7	  -20.5349	   12.3176	    6.4554	  -23.4283	
 -270.0000	1.095E-11	6.723E-12	3.168E+7	7.757E+6	  -20.5196	   12.3143	    6.4570	  -23.4280	
 -280.0000	1.082E-11	6.259E-12	3.307E+7	8.053E+6	  -20.5120	   12.3079	    6.4323	  -23.4755	
 -290.0000	1.048E-11	6.157E-12	3.433E+7	8.463E+6	  -20.4764	   12.2922	    6.4032	  -23.5377	
 -300.0000	9.748E-12	6.126E-12	3.702E+7	8.623E+6	  -20.4433	   12.2232	    6.3526	  -23.6770	
 -310.0000	9.874E-12	6.099E-12	3.844E+7	8.746E+6	  -20.4077	   12.3151	    6.3555	  -23.6046	
 -320.0000	9.616E-12	6.066E-12	4.076E+7	8.925E+6	  -20.3721	   12.3151	    6.3435	  -23.6257	
 -330.0000	9.355E-12	6.034E-12	4.244E+7	8.935E+6	  -20.3365	   12.3464	    6.3226	  -23.6395	
 -340.0000	9.203E-12	6.036E-12	4.418E+7	9.135E+6	  -20.2907	   12.3071	    6.2929	  -23.7210	
 -350.0000	9.163E-12	6.001E-12	4.552E+7	9.264E+6	  -20.2500	   12.2372	    6.2812	  -23.7931	
 -360.0000	9.007E-12	6.029E-12	4.799E+7	9.270E+6	  -20.2246	   12.1972	    6.2593	  -23.8611	
 -370.0000	8.930E-12	6.082E-12	5.098E+7	9.346E+6	  -20.1661	   12.0765	    6.2062	  -24.0446	
 -380.0000	8.909E-12	6.090E-12	5.290E+7	9.492E+6	  -20.1432	   12.0452	    6.1948	  -24.0879	
 -390.0000	8.759E-12	6.121E-12	5.621E+7	9.644E+6	  -20.0949	   12.0694	    6.1717	  -24.1117	
 -400.0000	8.804E-12	6.140E-12	5.962E+7	9.831E+6	  -20.0389	   12.0997	    6.1803	  -24.0741	
 -410.0000	8.655E-12	6.102E-12	5.874E+7	9.772E+6	  -20.0313	   12.0598	    6.1774	  -24.1085	
 -420.0000	8.571E-12	6.070E-12	6.089E+7	9.699E+6	  -20.0008	   11.9757	    6.1528	  -24.2146	
 -430.0000	8.558E-12	6.136E-12	6.497E+7	9.858E+6	  -19.9575	   11.9743	    6.1534	  -24.2144	
 -440.0000	8.491E-12	6.165E-12	6.797E+7	1.004E+7	  -19.9321	   11.9856	    6.1594	  -24.1953	
 -450.0000	8.481E-12	6.171E-12	7.049E+7	1.012E+7	  -19.9270	   11.9001	    6.1689	  -24.2409	
 -460.0000	8.339E-12	6.145E-12	7.137E+7	1.025E+7	  -19.9143	   11.8200	    6.1584	  -24.3183	
 -470.0000	8.286E-12	6.138E-12	7.435E+7	1.017E+7	  -19.8914	   11.6767	    6.1293	  -24.4757	
 -480.0000	8.270E-12	6.151E-12	7.821E+7	1.021E+7	  -19.8761	   11.7074	    6.1078	  -24.4922	
 -490.0000	8.202E-12	6.114E-12	7.952E+7	1.033E+7	  -19.8761	   11.7531	    6.0908	  -24.4898	
 -500.0000	8.206E-12	6.153E-12	8.529E+7	1.036E+7	  -19.8405	   11.7252	    6.0971	  -24.4988	
 -510.0000	8.158E-12	6.147E-12	8.907E+7	1.032E+7	  -19.8380	   11.7911	    6.0658	  -24.5076	
 -520.0000	8.092E-12	6.116E-12	8.720E+7	1.035E+7	  -19.8380	   11.7469	    6.0468	  -24.5746	
 -530.0000	8.077E-12	6.186E-12	9.177E+7	1.059E+7	  -19.8176	   11.7956	    6.0465	  -24.5395	
 -540.0000	8.014E-12	6.234E-12	9.209E+7	1.076E+7	  -19.7998	   11.8719	    6.0335	  -24.5075	
 -550.0000	7.945E-12	6.138E-12	9.651E+7	1.041E+7	  -19.8024	   11.8490	    6.0139	  -24.5603	
 -560.0000	7.992E-12	6.208E-12	9.795E+7	1.076E+7	  -19.8151	   11.7406	    5.9946	  -24.6751	
 -570.0000	7.942E-12	6.157E-12	1.045E+8	1.051E+7	  -19.8100	   11.7736	    5.9804	  -24.6773	
 -580.0000	7.941E-12	6.096E-12	1.071E+8	1.061E+7	  -19.8202	   11.7736	    5.9646	  -24.7065	
 -590.0000	7.900E-12	6.120E-12	1.118E+8	1.054E+7	  -19.8431	   11.8048	    5.9725	  -24.6755	
 -600.0000	7.853E-12	6.132E-12	1.116E+8	1.070E+7	  -19.8405	   11.7692	    5.9564	  -24.7250	
 -610.0000	7.875E-12	6.136E-12	1.151E+8	1.065E+7	  -19.8558	   11.7590	    5.9700	  -24.7072	
 -620.0000	7.829E-12	6.157E-12	1.173E+8	1.072E+7	  -19.8456	   11.7985	    5.9627	  -24.6919	
 -630.0000	7.776E-12	6.167E-12	1.190E+8	1.071E+7	  -19.8481	   11.7885	    5.9557	  -24.7120	
 -640.0000	7.764E-12	6.157E-12	1.237E+8	1.086E+7	  -19.8583	   11.8026	    5.9424	  -24.7265	
 -650.0000	7.807E-12	6.156E-12	1.297E+8	1.080E+7	  -19.8761	   11.7807	    5.9522	  -24.7242	
 -660.0000	7.766E-12	6.184E-12	1.241E+8	1.090E+7	  -19.9066	   11.6526	    5.9741	  -24.7773	
 -670.0000	7.775E-12	6.237E-12	1.346E+8	1.103E+7	  -19.9041	   11.6396	    5.9899	  -24.7576	
 -680.0000	7.745E-12	6.166E-12	1.416E+8	1.085E+7	  -19.9092	   11.6226	    6.0013	  -24.7491	
 -690.0000	7.711E-12	6.154E-12	1.380E+8	1.096E+7	  -19.9321	   11.6868	    5.9930	  -24.7173	
 -700.0000	7.691E-12	6.145E-12	1.392E+8	1.107E+7	  -19.9499	   11.7684	    5.9908	  -24.6617	
 -710.0000	7.707E-12	6.160E-12	1.439E+8	1.087E+7	  -19.9779	   11.7684	    5.9870	  -24.6687	
 -720.0000	7.800E-12	6.146E-12	1.474E+8	1.093E+7	  -19.9931	   11.8681	    5.9791	  -24.6188	
 -730.0000	7.673E-12	6.142E-12	1.465E+8	1.099E+7	  -20.0237	   11.8470	    5.9801	  -24.6242	
 -740.0000	7.686E-12	6.116E-12	1.505E+8	1.092E+7	  -20.0211	   11.8349	    5.9791	  -24.6348	
 -750.0000	7.624E-12	6.106E-12	1.522E+8	1.084E+7	  -20.0364	   11.8286	    5.9738	  -24.6494	
 -760.0000	7.647E-12	6.093E-12	1.566E+8	1.079E+7	  -20.0542	   11.8948	    6.0032	  -24.5466	
 -770.0000	7.613E-12	6.117E-12	1.515E+8	1.087E+7	  -20.0618	   11.8660	    6.0104	  -24.5543	
 -780.0000	7.624E-12	6.130E-12	1.617E+8	1.103E+7	  -20.0593	   11.8742	    6.0076	  -24.5536	
 -790.0000	7.596E-12	6.180E-12	1.585E+8	1.115E+7	  -20.0771	   11.8234	    6.0085	  -24.5889	
 -800.0000	7.643E-12	6.173E-12	1.604E+8	1.107E+7	  -20.0822	   11.7615	    6.0130	  -24.6260	
 -810.0000	7.651E-12	6.146E-12	1.541E+8	1.102E+7	  -20.0923	   11.7375	    6.0130	  -24.6436	
 -820.0000	7.554E-12	6.132E-12	1.665E+8	1.090E+7	  -20.1152	   11.6433	    6.0275	  -24.6856	
 -830.0000	7.613E-12	6.178E-12	1.636E+8	1.105E+7	  -20.1203	   11.6804	    6.0281	  -24.6574	
 -840.0000	7.582E-12	6.179E-12	1.685E+8	1.111E+7	  -20.1330	   11.6804	    6.0234	  -24.6661	
 -850.0000	7.659E-12	6.201E-12	1.670E+8	1.130E+7	  -20.1254	   11.6941	    6.0626	  -24.6166	
 -860.0000	7.598E-12	6.198E-12	1.656E+8	1.134E+7	  -20.1381	   11.6166	    6.0737	  -24.6208	
 -870.0000	7.615E-12	6.202E-12	1.691E+8	1.132E+7	  -20.1356	   11.5457	    6.0765	  -24.6674	
 -880.0000	7.607E-12	6.177E-12	1.721E+8	1.117E+7	  -20.1381	   11.5749	    6.0990	  -24.6053	
 -890.0000	7.556E-12	6.172E-12	1.775E+8	1.133E+7	  -20.1356	   11.6627	    6.0762	  -24.5824	
 -900.0000	7.573E-12	6.178E-12	1.695E+8	1.117E+7	  -20.1254	   11.6760	    6.0651	  -24.5929	
 -910.0000	7.542E-12	6.114E-12	1.724E+8	1.106E+7	  -20.1254	   11.5768	    6.0550	  -24.6839	
 -920.0000	7.577E-12	6.117E-12	1.762E+8	1.108E+7	  -20.1229	   11.5966	    6.0440	  -24.6897	
 -930.0000	7.567E-12	6.119E-12	1.751E+8	1.115E+7	  -20.1229	   11.5662	    6.0427	  -24.7142	
 -940.0000	7.551E-12	6.174E-12	1.734E+8	1.101E+7	  -20.1101	   11.5899	    6.0275	  -24.7247	
 -950.0000	7.568E-12	6.104E-12	1.700E+8	1.111E+7	  -20.1127	   11.5581	    6.0319	  -24.7398	
 -960.0000	7.561E-12	6.107E-12	1.726E+8	1.114E+7	  -20.1025	   11.6028	    6.0288	  -24.7130	
 -970.0000	7.544E-12	6.142E-12	1.765E+8	1.128E+7	  -20.0974	   11.6028	    6.0259	  -24.7182	
 -980.0000	7.539E-12	6.142E-12	1.788E+8	1.124E+7	  -20.0847	   11.6527	    6.0310	  -24.6724	
 -990.0000	7.625E-12	6.154E-12	1.744E+8	1.125E+7	  -20.0745	   11.6920	    6.0452	  -24.6176	
-1000.0000	7.450E-12	6.154E-12	1.619E+8	1.140E+7	  -20.0745	   11.6509	    6.0361	  -24.6645	
