GCD Test
Bias: 5000.000000
IV_D0_CO138_LargeDiode_GRConnected_Irradiated_10min_at_60C
Date/Time: 7/30/2021 1:40:00 PM
Sensor Name: CO139
Type: N
Annealing Status: Irradiated, Annealed at 60C for 10 Minutes
Environment: -20C
Tester: Andrew Kent

Time Delay per Ramp Step (s): 0.500

CV Time Delay per Measurement (s) :0.500

AC Voltage (V): 0.500

Current Number of measurements per voltage: 4.000

IV Time Delay per Measurement (s) :0.000


BiasVoltage	Total Current_Avg	Total Current_0	Total Current_1	Total Current_2	Total Current_3	Bias Current_Avg	Bias Current_0	Bias Current_1	Bias Current_2	Bias Current_3	Temperature	Air_Temp	Humidity	Dewpoint	
    1.0000	 3.1105E-7	 3.1290E-7	 3.1270E-7	 3.0950E-7	 3.0910E-7	3.458438E-7	3.458192E-7	3.456489E-7	3.458119E-7	3.460953E-7	  -19.6472	   13.4537	    4.8653	  -25.7354	
    2.0000	 4.7068E-7	 4.7510E-7	 4.7210E-7	 4.6890E-7	 4.6660E-7	4.648734E-7	4.654999E-7	4.645183E-7	4.659010E-7	4.635745E-7	  -19.7795	   13.5040	    4.8561	  -25.7202	
    3.0000	 5.5542E-7	 5.5890E-7	 5.5530E-7	 5.5390E-7	 5.5360E-7	5.503352E-7	5.516516E-7	5.507603E-7	5.482890E-7	5.506400E-7	  -20.0059	   13.4393	    4.8140	  -25.8615	
    4.0000	 6.3045E-7	 6.3190E-7	 6.3300E-7	 6.3070E-7	 6.2620E-7	6.234149E-7	6.234084E-7	6.255885E-7	6.238859E-7	6.207769E-7	  -20.2068	   13.4650	    4.8020	  -25.8705	
    5.0000	 6.9045E-7	 6.9550E-7	 6.9180E-7	 6.8710E-7	 6.8740E-7	6.882634E-7	6.877393E-7	6.900891E-7	6.903250E-7	6.849000E-7	  -20.3518	   13.4537	    4.7533	  -25.9900	
    6.0000	 7.4860E-7	 7.5080E-7	 7.4930E-7	 7.4630E-7	 7.4800E-7	7.439110E-7	7.467232E-7	7.444551E-7	7.443308E-7	7.401350E-7	  -20.4942	   13.4127	    4.7214	  -26.0928	
    7.0000	 7.9735E-7	 8.0080E-7	 7.9860E-7	 7.9570E-7	 7.9430E-7	7.982439E-7	7.940301E-7	8.016817E-7	7.996322E-7	7.976315E-7	  -20.6824	   13.4199	    4.6714	  -26.2037	
    8.0000	 8.4402E-7	 8.5100E-7	 8.4460E-7	 8.4150E-7	 8.3900E-7	8.420671E-7	8.384218E-7	8.433147E-7	8.446396E-7	8.418921E-7	  -20.8172	   13.3726	    4.6546	  -26.2765	
    9.0000	 8.9170E-7	 8.9400E-7	 8.9260E-7	 8.8930E-7	 8.9090E-7	8.859362E-7	8.867351E-7	8.853818E-7	8.846683E-7	8.869595E-7	  -20.9011	   13.3888	    4.6139	  -26.3608	
   10.0000	 9.3790E-7	 9.3520E-7	 9.3910E-7	 9.3710E-7	 9.4020E-7	9.369493E-7	9.397532E-7	9.373310E-7	9.338358E-7	9.368771E-7	  -20.9774	   13.3795	    4.5791	  -26.4498	
   20.0000	 1.3682E-6	 1.3740E-6	 1.3680E-6	 1.3660E-6	 1.3650E-6	1.368270E-6	1.366373E-6	1.368992E-6	1.364995E-6	1.372721E-6	  -21.1045	   13.3594	    4.5430	  -26.5500	
   30.0000	 1.7323E-6	 1.7320E-6	 1.7340E-6	 1.7320E-6	 1.7310E-6	1.729289E-6	1.729546E-6	1.725335E-6	1.730391E-6	1.731884E-6	  -21.1376	   13.3104	    4.5237	  -26.6309	
   40.0000	 2.0480E-6	 2.0500E-6	 2.0520E-6	 2.0440E-6	 2.0460E-6	2.042873E-6	2.044255E-6	2.050422E-6	2.038835E-6	2.037979E-6	  -21.1630	   13.2773	    4.5028	  -26.7046	
   50.0000	 2.3322E-6	 2.3370E-6	 2.3240E-6	 2.3300E-6	 2.3380E-6	2.343831E-6	2.335859E-6	2.338254E-6	2.346293E-6	2.354918E-6	  -21.1884	   13.2944	    4.4529	  -26.8135	
   60.0000	 2.6155E-6	 2.6130E-6	 2.6240E-6	 2.6100E-6	 2.6150E-6	2.611838E-6	2.609202E-6	2.608747E-6	2.615866E-6	2.613538E-6	  -21.1833	   13.2944	    4.4279	  -26.8745	
   70.0000	 2.8722E-6	 2.8810E-6	 2.8730E-6	 2.8690E-6	 2.8660E-6	2.893811E-6	2.876104E-6	2.898288E-6	2.897344E-6	2.903508E-6	  -21.1528	   13.2398	    4.4165	  -26.9409	
   80.0000	 3.1450E-6	 3.1280E-6	 3.1350E-6	 3.1520E-6	 3.1650E-6	3.167980E-6	3.167119E-6	3.162614E-6	3.168670E-6	3.173518E-6	  -21.0842	   13.1911	    4.3770	  -27.0727	
   90.0000	 3.4082E-6	 3.4040E-6	 3.3990E-6	 3.4140E-6	 3.4160E-6	3.398434E-6	3.395458E-6	3.391350E-6	3.396030E-6	3.410896E-6	  -21.0333	   13.1911	    4.3637	  -27.1055	
  100.0000	 3.6635E-6	 3.6650E-6	 3.6610E-6	 3.6580E-6	 3.6700E-6	3.680681E-6	3.676663E-6	3.677991E-6	3.686241E-6	3.681828E-6	  -20.9418	   13.1928	    4.3390	  -27.1656	
  120.0000	 4.1355E-6	 4.0910E-6	 4.1410E-6	 4.1580E-6	 4.1520E-6	4.146154E-6	4.136520E-6	4.151303E-6	4.141305E-6	4.155489E-6	  -20.7917	   13.1918	    4.3280	  -27.1939	
  140.0000	 4.5582E-6	 4.5580E-6	 4.5590E-6	 4.5490E-6	 4.5670E-6	4.593532E-6	4.568583E-6	4.585907E-6	4.619520E-6	4.600116E-6	  -20.7078	   13.1454	    4.3178	  -27.2519	
  160.0000	 4.9698E-6	 4.9370E-6	 4.9640E-6	 4.9780E-6	 5.0000E-6	4.998716E-6	5.001231E-6	4.995218E-6	5.003095E-6	4.995321E-6	  -20.5654	   13.2110	    4.3099	  -27.2254	
  180.0000	 5.3850E-6	 5.3840E-6	 5.3720E-6	 5.3750E-6	 5.4090E-6	5.411853E-6	5.396586E-6	5.410654E-6	5.421269E-6	5.418904E-6	  -20.4459	   13.2959	    4.3036	  -27.1814	
  200.0000	 5.7718E-6	 5.7260E-6	 5.7740E-6	 5.7820E-6	 5.8050E-6	5.829093E-6	5.838408E-6	5.837428E-6	5.811536E-6	5.829000E-6	  -20.3390	   13.3138	    4.3058	  -27.1633	
  220.0000	 6.1693E-6	 6.1340E-6	 6.1790E-6	 6.1840E-6	 6.1800E-6	6.188864E-6	6.174158E-6	6.162780E-6	6.192002E-6	6.226514E-6	  -20.1636	   13.2688	    4.3150	  -27.1720	
  240.0000	 6.5128E-6	 6.4620E-6	 6.5060E-6	 6.5300E-6	 6.5530E-6	6.539646E-6	6.569026E-6	6.533271E-6	6.521082E-6	6.535203E-6	  -20.0745	   13.1626	    4.3308	  -27.2073	
  260.0000	 6.8387E-6	 6.8560E-6	 6.8030E-6	 6.8540E-6	 6.8420E-6	6.848069E-6	6.857675E-6	6.876357E-6	6.881508E-6	6.776734E-6	  -19.9346	   13.2097	    4.3134	  -27.2176	
  280.0000	 7.1737E-6	 7.1480E-6	 7.1770E-6	 7.1930E-6	 7.1770E-6	7.180843E-6	7.196217E-6	7.189848E-6	7.174215E-6	7.163093E-6	  -19.8303	   13.1810	    4.2910	  -27.2941	
  300.0000	 7.4633E-6	 7.4410E-6	 7.4580E-6	 7.4560E-6	 7.4980E-6	7.487193E-6	7.493944E-6	7.471315E-6	7.493054E-6	7.490458E-6	  -19.7464	   13.2566	    4.2935	  -27.2345	
  320.0000	 7.7338E-6	 7.7570E-6	 7.7370E-6	 7.7170E-6	 7.7240E-6	7.731769E-6	7.724067E-6	7.721241E-6	7.742511E-6	7.739258E-6	  -19.6828	   13.2605	    4.3128	  -27.1850	
  340.0000	 8.0953E-6	 8.0000E-6	 8.0800E-6	 8.1280E-6	 8.1730E-6	7.426825E-6	7.404928E-6	7.441709E-6	7.437853E-6	7.422811E-6	  -19.5861	   13.3045	    4.3030	  -27.1770	
  360.0000	 8.4497E-6	 8.4210E-6	 8.4470E-6	 8.4730E-6	 8.4580E-6	7.518162E-6	7.545199E-6	7.446469E-6	7.529254E-6	7.551727E-6	  -19.5302	   13.2118	    4.2944	  -27.2637	
  380.0000	 8.5960E-6	 8.6280E-6	 8.5790E-6	 8.5790E-6	 8.5980E-6	7.612942E-6	7.634825E-6	7.629116E-6	7.600398E-6	7.587429E-6	  -19.4996	   13.1858	    4.2865	  -27.3019	
  400.0000	 8.7945E-6	 8.7760E-6	 8.8150E-6	 8.7820E-6	 8.8050E-6	7.675215E-6	7.685521E-6	7.686646E-6	7.650510E-6	7.678184E-6	  -19.4716	   13.2058	    4.2786	  -27.3078	
  420.0000	 8.9965E-6	 8.9760E-6	 8.9950E-6	 9.0100E-6	 9.0050E-6	7.678573E-6	7.680467E-6	7.677417E-6	7.647380E-6	7.709027E-6	  -19.4488	   13.1952	    4.2685	  -27.3408	
  440.0000	 9.1450E-6	 9.1340E-6	 9.1600E-6	 9.1630E-6	 9.1230E-6	7.753077E-6	7.709683E-6	7.712680E-6	7.749388E-6	7.840557E-6	  -19.4437	   13.1442	    4.2410	  -27.4464	
  460.0000	 9.2005E-6	 9.2350E-6	 9.2210E-6	 9.1830E-6	 9.1630E-6	7.899467E-6	7.866262E-6	7.886486E-6	7.909975E-6	7.935146E-6	  -19.4538	   13.1585	    4.2356	  -27.4500	
  480.0000	 9.3105E-6	 9.3090E-6	 9.3030E-6	 9.3130E-6	 9.3170E-6	7.784151E-6	7.805782E-6	7.783140E-6	7.754144E-6	7.793538E-6	  -19.4920	   13.1671	    4.2239	  -27.4737	
  500.0000	 9.4058E-6	 9.4110E-6	 9.4260E-6	 9.4240E-6	 9.3620E-6	7.848173E-6	7.814704E-6	7.855549E-6	7.862917E-6	7.859521E-6	  -19.5124	   13.2040	    4.2113	  -27.4801	
  520.0000	 9.4765E-6	 9.5080E-6	 9.4480E-6	 9.4410E-6	 9.5090E-6	7.874271E-6	7.882120E-6	7.889276E-6	7.881116E-6	7.844571E-6	  -19.5480	   13.2231	    4.2128	  -27.4626	
  540.0000	 9.6080E-6	 9.6570E-6	 9.6260E-6	 9.5950E-6	 9.5540E-6	7.829516E-6	7.817502E-6	7.835490E-6	7.827590E-6	7.837482E-6	  -19.5963	   13.2268	    4.1948	  -27.5062	
  560.0000	 9.6578E-6	 9.6550E-6	 9.6790E-6	 9.6440E-6	 9.6530E-6	7.868189E-6	7.863008E-6	7.846140E-6	7.881919E-6	7.881690E-6	  -19.6981	   13.1981	    4.1954	  -27.5248	
  580.0000	 9.7620E-6	 9.7790E-6	 9.7580E-6	 9.7470E-6	 9.7640E-6	7.716435E-6	7.727843E-6	7.702106E-6	7.714465E-6	7.721326E-6	  -19.7591	   13.1981	    4.1891	  -27.5410	
  600.0000	 9.9018E-6	 9.8750E-6	 9.9230E-6	 9.9120E-6	 9.8970E-6	7.607402E-6	7.632644E-6	7.620404E-6	7.604196E-6	7.572363E-6	  -19.8049	   13.2304	    4.2116	  -27.4607	
  620.0000	 1.0033E-5	 1.0060E-5	 1.0050E-5	 1.0000E-5	 1.0020E-5	7.567014E-6	7.580430E-6	7.556734E-6	7.571273E-6	7.559619E-6	  -19.8609	   13.1881	    4.2043	  -27.5091	
  640.0000	 9.9900E-6	 1.0210E-5	 1.0180E-5	 9.8900E-6	 9.6800E-6	7.946329E-6	7.949357E-6	7.959142E-6	7.933783E-6	7.943034E-6	  -19.9194	   13.1647	    4.2109	  -27.5085	
  660.0000	 1.1113E-5	 1.0960E-5	 1.0950E-5	 1.1170E-5	 1.1370E-5	7.087209E-6	7.094304E-6	7.069745E-6	7.086078E-6	7.098710E-6	  -20.0313	   13.1683	    4.1939	  -27.5498	
  680.0000	 1.1837E-5	 1.1870E-5	 1.1830E-5	 1.1840E-5	 1.1810E-5	7.076289E-6	7.063163E-6	7.065478E-6	7.098215E-6	7.078299E-6	  -20.0669	   13.1683	    4.1692	  -27.6132	
  700.0000	 1.2410E-5	 1.2390E-5	 1.2440E-5	 1.2420E-5	 1.2390E-5	7.030177E-6	7.041122E-6	7.047231E-6	7.025610E-6	7.006746E-6	  -20.1127	   13.1578	    4.1607	  -27.6427	
  720.0000	 1.3600E-5	 1.3740E-5	 1.3670E-5	 1.3600E-5	 1.3390E-5	7.026038E-6	7.032826E-6	7.041718E-6	7.024491E-6	7.005119E-6	  -20.1686	   13.1930	    4.1369	  -27.6794	
  740.0000	 1.4592E-5	 1.4920E-5	 1.4720E-5	 1.4450E-5	 1.4280E-5	6.986871E-6	6.987881E-6	6.994401E-6	6.972117E-6	6.993086E-6	  -20.2399	   13.1806	    4.1471	  -27.6619	
  760.0000	 1.5598E-5	 1.5710E-5	 1.5620E-5	 1.5620E-5	 1.5440E-5	7.007285E-6	6.992321E-6	7.005906E-6	7.016206E-6	7.014707E-6	  -20.2729	   13.1067	    4.1436	  -27.7228	
  780.0000	 1.6602E-5	 1.6680E-5	 1.6670E-5	 1.6510E-5	 1.6550E-5	6.991981E-6	7.014648E-6	6.986423E-6	6.987000E-6	6.979852E-6	  -20.3009	   13.0773	    4.1120	  -27.8257	
  800.0000	 1.7535E-5	 1.7520E-5	 1.7550E-5	 1.7520E-5	 1.7550E-5	6.977711E-6	6.999307E-6	6.978018E-6	6.964407E-6	6.969113E-6	  -20.3238	   13.0890	    4.1120	  -27.8175	
  820.0000	 1.8413E-5	 1.8420E-5	 1.8390E-5	 1.8420E-5	 1.8420E-5	6.976614E-6	6.960104E-6	6.981585E-6	6.988231E-6	6.976535E-6	  -20.3467	   13.1190	    4.0952	  -27.8403	
  840.0000	 1.9485E-5	 1.9450E-5	 1.9510E-5	 1.9480E-5	 1.9500E-5	7.020430E-6	7.020808E-6	7.016577E-6	7.019941E-6	7.024395E-6	  -20.3518	   13.1037	    4.0876	  -27.8709	
  860.0000	 2.0462E-5	 2.0510E-5	 2.0520E-5	 2.0450E-5	 2.0370E-5	7.047237E-6	7.028361E-6	7.056576E-6	7.042299E-6	7.061714E-6	  -20.3340	   13.1280	    4.0702	  -27.8997	
  880.0000	 2.1423E-5	 2.1480E-5	 2.1450E-5	 2.1430E-5	 2.1330E-5	7.076347E-6	7.067021E-6	7.087719E-6	7.083048E-6	7.067601E-6	  -20.3416	   13.1693	    4.0705	  -27.8699	
  900.0000	 2.2330E-5	 2.2360E-5	 2.2360E-5	 2.2310E-5	 2.2290E-5	7.134141E-6	7.133238E-6	7.146381E-6	7.130255E-6	7.126690E-6	  -20.3238	   13.1652	    4.0642	  -27.8895	
  920.0000	 2.3370E-5	 2.3350E-5	 2.3400E-5	 2.3380E-5	 2.3350E-5	7.213165E-6	7.209101E-6	7.204942E-6	7.225075E-6	7.213541E-6	  -20.3136	   13.1102	    4.0522	  -27.9598	
  940.0000	 2.5183E-5	 2.5250E-5	 2.5290E-5	 2.5120E-5	 2.5070E-5	7.269703E-6	7.246269E-6	7.262118E-6	7.278985E-6	7.291440E-6	  -20.3034	   13.0940	    4.0478	  -27.9828	
  960.0000	 2.6177E-5	 2.6130E-5	 2.6230E-5	 2.6190E-5	 2.6160E-5	7.331821E-6	7.344680E-6	7.329755E-6	7.332167E-6	7.320683E-6	  -20.2678	   13.1588	    4.0329	  -27.9769	
  980.0000	 2.7215E-5	 2.7190E-5	 2.7190E-5	 2.7260E-5	 2.7220E-5	7.392397E-6	7.369573E-6	7.395154E-6	7.393393E-6	7.411469E-6	  -20.2373	   13.1605	    4.0291	  -27.9858	
 1000.0000	 2.8200E-5	 2.8230E-5	 2.8150E-5	 2.8180E-5	 2.8240E-5	7.456965E-6	7.465119E-6	7.444505E-6	7.454573E-6	7.463661E-6	  -20.1941	   13.1897	    4.0127	  -28.0092	
 1020.0000	 2.9185E-5	 2.9240E-5	 2.9140E-5	 2.9230E-5	 2.9130E-5	7.536072E-6	7.537329E-6	7.542951E-6	7.526960E-6	7.537050E-6	  -20.1610	   13.1155	    4.0142	  -28.0569	
 1040.0000	 3.0230E-5	 3.0310E-5	 3.0140E-5	 3.0110E-5	 3.0360E-5	7.655657E-6	7.661468E-6	7.644444E-6	7.666459E-6	7.650257E-6	  -20.1178	   13.0864	    4.0168	  -28.0705	
 1060.0000	 3.1195E-5	 3.1130E-5	 3.1090E-5	 3.1360E-5	 3.1200E-5	7.700059E-6	7.709022E-6	7.697206E-6	7.682214E-6	7.711793E-6	  -20.0847	   13.1121	    4.0139	  -28.0601	
 1080.0000	 3.3332E-5	 3.3410E-5	 3.3430E-5	 3.3310E-5	 3.3180E-5	7.739619E-6	7.761302E-6	7.741943E-6	7.712944E-6	7.742289E-6	  -20.0389	   13.1331	    4.0183	  -28.0336	
 1100.0000	 3.4180E-5	 3.4120E-5	 3.4130E-5	 3.4250E-5	 3.4220E-5	7.859233E-6	7.854196E-6	7.851369E-6	7.866438E-6	7.864930E-6	  -20.0084	   13.0850	    4.0183	  -28.0673	
