GCD Test
Bias: 5000.000000
IV_D0_CO138_LargeDiode_GRConnected_Irradiated_80min
Date/Time: 8/4/2021 2:08:28 PM
Sensor Name: CO138
Type: N
Annealing Status: Irradiated and Annealed at 60C for 80 minute
Environment: 20C
Tester: Andrew Kent

Time Delay per Ramp Step (s): 0.500

CV Time Delay per Measurement (s) :0.500

AC Voltage (V): 0.500

Current Number of measurements per voltage: 4.000

IV Time Delay per Measurement (s) :0.000


BiasVoltage	Total Current_Avg	Total Current_0	Total Current_1	Total Current_2	Total Current_3	Bias Current_Avg	Bias Current_0	Bias Current_1	Bias Current_2	Bias Current_3	Temperature	Air_Temp	Humidity	Dewpoint	
    1.0000	 3.2077E-7	 3.2100E-7	 3.2120E-7	 3.2020E-7	 3.2070E-7	3.237721E-7	3.242093E-7	3.236070E-7	3.239341E-7	3.233379E-7	  -20.0364	    8.5334	    4.2034	  -30.7942	
    2.0000	 4.3660E-7	 4.3700E-7	 4.3620E-7	 4.3610E-7	 4.3710E-7	4.358296E-7	4.362692E-7	4.357454E-7	4.354586E-7	4.358451E-7	  -20.0415	    8.4966	    4.2271	  -30.7615	
    3.0000	 5.2515E-7	 5.2750E-7	 5.2450E-7	 5.2500E-7	 5.2360E-7	5.258750E-7	5.230193E-7	5.269069E-7	5.263666E-7	5.272070E-7	  -20.0542	    8.5487	    4.2502	  -30.6678	
    4.0000	 6.0688E-7	 6.0560E-7	 6.0590E-7	 6.0780E-7	 6.0820E-7	6.073436E-7	6.066637E-7	6.067028E-7	6.065719E-7	6.094360E-7	  -20.0694	    8.5694	    4.2887	  -30.5586	
    5.0000	 6.7980E-7	 6.8010E-7	 6.7970E-7	 6.8010E-7	 6.7930E-7	6.799018E-7	6.794799E-7	6.790581E-7	6.801298E-7	6.809394E-7	  -20.0822	    8.5997	    4.3027	  -30.5033	
    6.0000	 7.4403E-7	 7.4390E-7	 7.4260E-7	 7.4370E-7	 7.4590E-7	7.429258E-7	7.433791E-7	7.422614E-7	7.419575E-7	7.441051E-7	  -20.0949	    8.6102	    4.3071	  -30.4850	
    7.0000	 8.0633E-7	 8.0800E-7	 8.0910E-7	 8.0600E-7	 8.0220E-7	8.046584E-7	8.025657E-7	8.031737E-7	8.048136E-7	8.080807E-7	  -20.1025	    8.6636	    4.2944	  -30.4779	
    8.0000	 8.6580E-7	 8.6450E-7	 8.6510E-7	 8.6690E-7	 8.6670E-7	8.631234E-7	8.642509E-7	8.630518E-7	8.620061E-7	8.631848E-7	  -20.0949	    8.7310	    4.2698	  -30.4905	
    9.0000	 9.2160E-7	 9.2090E-7	 9.2060E-7	 9.2000E-7	 9.2490E-7	9.247670E-7	9.248583E-7	9.217270E-7	9.278262E-7	9.246567E-7	  -20.0949	    8.7493	    4.2742	  -30.4667	
   10.0000	 9.7798E-7	 9.7790E-7	 9.7760E-7	 9.7770E-7	 9.7870E-7	9.806289E-7	9.803397E-7	9.822901E-7	9.807902E-7	9.790955E-7	  -20.0923	    8.7749	    4.2653	  -30.4703	
   20.0000	 1.4358E-6	 1.4370E-6	 1.4340E-6	 1.4380E-6	 1.4340E-6	1.438389E-6	1.436982E-6	1.438192E-6	1.439321E-6	1.439062E-6	  -20.0847	    8.7710	    4.2707	  -30.4599	
   30.0000	 1.8210E-6	 1.8140E-6	 1.8230E-6	 1.8230E-6	 1.8240E-6	1.816876E-6	1.819650E-6	1.820060E-6	1.812513E-6	1.815280E-6	  -20.0669	    8.8442	    4.3027	  -30.3299	
   40.0000	 2.1545E-6	 2.1580E-6	 2.1540E-6	 2.1480E-6	 2.1580E-6	2.162449E-6	2.161268E-6	2.165150E-6	2.160357E-6	2.163022E-6	  -20.0516	    8.8442	    4.3238	  -30.2784	
   50.0000	 2.4630E-6	 2.4550E-6	 2.4680E-6	 2.4660E-6	 2.4630E-6	2.455929E-6	2.461587E-6	2.455861E-6	2.454097E-6	2.452170E-6	  -20.0389	    8.8279	    4.3302	  -30.2747	
   60.0000	 2.7460E-6	 2.7440E-6	 2.7460E-6	 2.7420E-6	 2.7520E-6	2.750434E-6	2.754507E-6	2.749551E-6	2.747859E-6	2.749819E-6	  -20.0084	    8.9038	    4.3640	  -30.1391	
   70.0000	 3.0077E-6	 3.0090E-6	 3.0070E-6	 3.0060E-6	 3.0090E-6	2.992941E-6	2.997293E-6	2.991485E-6	2.991981E-6	2.991007E-6	  -20.0033	    8.9038	    4.3615	  -30.1452	
   80.0000	 3.2560E-6	 3.2580E-6	 3.2660E-6	 3.2550E-6	 3.2450E-6	3.254620E-6	3.240565E-6	3.256473E-6	3.261574E-6	3.259869E-6	  -19.9957	    8.9269	    4.3770	  -30.0915	
   90.0000	 3.4842E-6	 3.4750E-6	 3.4800E-6	 3.4870E-6	 3.4950E-6	3.494342E-6	3.491283E-6	3.492776E-6	3.496431E-6	3.496877E-6	  -19.9855	    8.9825	    4.3779	  -30.0498	
  100.0000	 3.7033E-6	 3.6930E-6	 3.7050E-6	 3.7020E-6	 3.7130E-6	3.705796E-6	3.711462E-6	3.710073E-6	3.701475E-6	3.700174E-6	  -19.9753	    9.0145	    4.3691	  -30.0483	
  120.0000	 4.1030E-6	 4.0980E-6	 4.0960E-6	 4.1090E-6	 4.1090E-6	4.113799E-6	4.103253E-6	4.108962E-6	4.126734E-6	4.116246E-6	  -19.9728	    9.0031	    4.3703	  -30.0534	
  140.0000	 4.4503E-6	 4.4490E-6	 4.4380E-6	 4.4570E-6	 4.4570E-6	4.462170E-6	4.458529E-6	4.460333E-6	4.466320E-6	4.463499E-6	  -19.9702	    8.9838	    4.3634	  -30.0839	
  160.0000	 4.7992E-6	 4.8050E-6	 4.8070E-6	 4.7960E-6	 4.7890E-6	4.767325E-6	4.772945E-6	4.771393E-6	4.762383E-6	4.762581E-6	  -19.9601	    8.9959	    4.3590	  -30.0859	
  180.0000	 5.0903E-6	 5.0820E-6	 5.0760E-6	 5.1010E-6	 5.1020E-6	5.110519E-6	5.108106E-6	5.116749E-6	5.102309E-6	5.114913E-6	  -19.9575	    9.0556	    4.3501	  -30.0650	
  200.0000	 5.3755E-6	 5.3810E-6	 5.3730E-6	 5.3720E-6	 5.3760E-6	5.366227E-6	5.373516E-6	5.356691E-6	5.354205E-6	5.380497E-6	  -19.9550	    9.0471	    4.3333	  -30.1115	
  220.0000	 5.6205E-6	 5.6210E-6	 5.6190E-6	 5.6110E-6	 5.6310E-6	5.605449E-6	5.618760E-6	5.613706E-6	5.600890E-6	5.588440E-6	  -19.9550	    9.0449	    4.3321	  -30.1161	
  240.0000	 5.8278E-6	 5.8300E-6	 5.8320E-6	 5.8350E-6	 5.8140E-6	5.832032E-6	5.820975E-6	5.846455E-6	5.833273E-6	5.827427E-6	  -19.9575	    9.0237	    4.3871	  -29.9985	
  260.0000	 6.0400E-6	 6.0280E-6	 6.0380E-6	 6.0440E-6	 6.0500E-6	6.034912E-6	6.044977E-6	6.030373E-6	6.029831E-6	6.034469E-6	  -19.9601	    9.0237	    4.4241	  -29.9102	
  280.0000	 6.2300E-6	 6.2270E-6	 6.2400E-6	 6.2230E-6	 6.2300E-6	6.252238E-6	6.257702E-6	6.248388E-6	6.253665E-6	6.249198E-6	  -19.9626	    9.0042	    4.4361	  -29.8955	
  300.0000	 6.4137E-6	 6.4130E-6	 6.4230E-6	 6.4070E-6	 6.4120E-6	6.409263E-6	6.416795E-6	6.407062E-6	6.395030E-6	6.418163E-6	  -19.9652	    9.0029	    4.4722	  -29.8112	
  320.0000	 6.5842E-6	 6.5960E-6	 6.5960E-6	 6.5700E-6	 6.5750E-6	6.582542E-6	6.573930E-6	6.589214E-6	6.584153E-6	6.582873E-6	  -19.9830	    9.0368	    4.4959	  -29.7313	
  340.0000	 6.7372E-6	 6.7280E-6	 6.7540E-6	 6.7380E-6	 6.7290E-6	6.717976E-6	6.729734E-6	6.714111E-6	6.717506E-6	6.710555E-6	  -19.9880	    9.0385	    4.5101	  -29.6967	
  360.0000	 6.8483E-6	 6.8490E-6	 6.8480E-6	 6.8370E-6	 6.8590E-6	6.876929E-6	6.892297E-6	6.872526E-6	6.877073E-6	6.865822E-6	  -20.0008	    9.0257	    4.5142	  -29.6962	
  380.0000	 7.0148E-6	 7.0300E-6	 7.0190E-6	 7.0030E-6	 7.0070E-6	7.006004E-6	6.996418E-6	6.988104E-6	7.016968E-6	7.022527E-6	  -19.9982	    8.9898	    4.5158	  -29.7181	
  400.0000	 7.1537E-6	 7.1450E-6	 7.1300E-6	 7.1720E-6	 7.1680E-6	7.151968E-6	7.159022E-6	7.154366E-6	7.145643E-6	7.148840E-6	  -20.0135	    9.0127	    4.5408	  -29.6436	
  420.0000	 7.2570E-6	 7.2520E-6	 7.2620E-6	 7.2670E-6	 7.2470E-6	7.234124E-6	7.253414E-6	7.246664E-6	7.220075E-6	7.216342E-6	  -20.0160	    9.0212	    4.5497	  -29.6170	
  440.0000	 7.3693E-6	 7.3690E-6	 7.3630E-6	 7.3770E-6	 7.3680E-6	7.395728E-6	7.381849E-6	7.387929E-6	7.409607E-6	7.403528E-6	  -20.0186	    9.0270	    4.5750	  -29.5543	
  460.0000	 7.4913E-6	 7.4880E-6	 7.4910E-6	 7.4980E-6	 7.4880E-6	7.497203E-6	7.498324E-6	7.521106E-6	7.493785E-6	7.475596E-6	  -20.0160	    9.0583	    4.6116	  -29.4476	
  480.0000	 7.5860E-6	 7.5760E-6	 7.5750E-6	 7.5930E-6	 7.6000E-6	7.579298E-6	7.580605E-6	7.572226E-6	7.576515E-6	7.587847E-6	  -20.0186	    8.9972	    4.6078	  -29.4999	
  500.0000	 7.6945E-6	 7.6720E-6	 7.7020E-6	 7.7080E-6	 7.6960E-6	7.677679E-6	7.691434E-6	7.688838E-6	7.659148E-6	7.671296E-6	  -20.0160	    8.9906	    4.6072	  -29.5060	
  520.0000	 7.7737E-6	 7.7840E-6	 7.7770E-6	 7.7630E-6	 7.7710E-6	7.777925E-6	7.789257E-6	7.784809E-6	7.777513E-6	7.760119E-6	  -20.0211	    9.0395	    4.5914	  -29.5075	
  540.0000	 7.8477E-6	 7.8300E-6	 7.8210E-6	 7.8810E-6	 7.8590E-6	7.874832E-6	7.878019E-6	7.873819E-6	7.883767E-6	7.863724E-6	  -20.0135	    9.0804	    4.5832	  -29.4973	
  560.0000	 7.9685E-6	 8.0030E-6	 7.9930E-6	 7.9460E-6	 7.9320E-6	7.975490E-6	7.927013E-6	7.949136E-6	8.006512E-6	8.019299E-6	  -20.0186	    9.0804	    4.5614	  -29.5477	
  580.0000	 8.0590E-6	 8.0610E-6	 8.0490E-6	 8.0610E-6	 8.0650E-6	8.059007E-6	8.064030E-6	8.067347E-6	8.049357E-6	8.055295E-6	  -20.0135	    9.1061	    4.5588	  -29.5352	
  600.0000	 8.1427E-6	 8.1600E-6	 8.1480E-6	 8.1350E-6	 8.1280E-6	8.125230E-6	8.131790E-6	8.121146E-6	8.111809E-6	8.136177E-6	  -20.0160	    9.0625	    4.5275	  -29.6390	
  620.0000	 8.2332E-6	 8.2210E-6	 8.2130E-6	 8.2410E-6	 8.2580E-6	8.254477E-6	8.270933E-6	8.249198E-6	8.251423E-6	8.246353E-6	  -20.0135	    9.0621	    4.5054	  -29.6911	
  640.0000	 8.3257E-6	 8.3170E-6	 8.3150E-6	 8.3250E-6	 8.3460E-6	8.333104E-6	8.329878E-6	8.337586E-6	8.323037E-6	8.341915E-6	  -20.0109	    9.0561	    4.5041	  -29.6983	
  660.0000	 8.4030E-6	 8.3980E-6	 8.3940E-6	 8.4110E-6	 8.4090E-6	8.413531E-6	8.396732E-6	8.443823E-6	8.419728E-6	8.393840E-6	  -20.0109	    9.0512	    4.5297	  -29.6419	
  680.0000	 8.5175E-6	 8.5370E-6	 8.5290E-6	 8.5080E-6	 8.4960E-6	8.483931E-6	8.502258E-6	8.474425E-6	8.484483E-6	8.474558E-6	  -20.0084	    9.0510	    4.5215	  -29.6612	
  700.0000	 8.5843E-6	 8.5680E-6	 8.5570E-6	 8.6030E-6	 8.6090E-6	8.613085E-6	8.601300E-6	8.595145E-6	8.621296E-6	8.634599E-6	  -20.0033	    9.0536	    4.5291	  -29.6417	
  720.0000	 8.7520E-6	 8.7400E-6	 8.7570E-6	 8.7540E-6	 8.7570E-6	8.762541E-6	8.760256E-6	8.753083E-6	8.766954E-6	8.769870E-6	  -19.9982	    9.0849	    4.5108	  -29.6622	
  740.0000	 8.8842E-6	 8.8910E-6	 8.8830E-6	 8.8760E-6	 8.8870E-6	8.918055E-6	8.929865E-6	8.924522E-6	8.903965E-6	8.913867E-6	  -19.9931	    9.1255	    4.5063	  -29.6437	
  760.0000	 9.0055E-6	 9.0200E-6	 9.0060E-6	 8.9940E-6	 9.0020E-6	9.019921E-6	9.023802E-6	9.019956E-6	9.015478E-6	9.020448E-6	  -19.9982	    9.0997	    4.4624	  -29.7654	
  780.0000	 9.1903E-6	 9.2050E-6	 9.1870E-6	 9.1880E-6	 9.1810E-6	9.197652E-6	9.220912E-6	9.197975E-6	9.165874E-6	9.205848E-6	  -19.9906	    9.1214	    4.4393	  -29.8046	
  800.0000	 9.3232E-6	 9.3280E-6	 9.3270E-6	 9.3120E-6	 9.3260E-6	9.313251E-6	9.322748E-6	9.303650E-6	9.312022E-6	9.314584E-6	  -19.9931	    9.1391	    4.4247	  -29.8267	
  820.0000	 9.4685E-6	 9.4510E-6	 9.4670E-6	 9.4670E-6	 9.4890E-6	9.471310E-6	9.477584E-6	9.479990E-6	9.462522E-6	9.465146E-6	  -19.9982	    9.1605	    4.4181	  -29.8273	
  840.0000	 9.6600E-6	 9.6630E-6	 9.6540E-6	 9.6600E-6	 9.6630E-6	9.676989E-6	9.677679E-6	9.680331E-6	9.670054E-6	9.679892E-6	  -20.0059	    9.1335	    4.4152	  -29.8533	
  860.0000	 9.8453E-6	 9.8440E-6	 9.8470E-6	 9.8560E-6	 9.8340E-6	9.830441E-6	9.820616E-6	9.830252E-6	9.826244E-6	9.844652E-6	  -20.0084	    9.1085	    4.4130	  -29.8763	
  880.0000	 1.0025E-5	 1.0040E-5	 1.0030E-5	 1.0020E-5	 1.0010E-5	1.004324E-5	1.002868E-5	1.005609E-5	1.005005E-5	1.003815E-5	  -20.0059	    9.1279	    4.4073	  -29.8761	
  900.0000	 1.0235E-5	 1.0200E-5	 1.0240E-5	 1.0250E-5	 1.0250E-5	1.024867E-5	1.027233E-5	1.022937E-5	1.024895E-5	1.024404E-5	  -20.0084	    9.0918	    4.4039	  -29.9101	
  920.0000	 1.0417E-5	 1.0430E-5	 1.0410E-5	 1.0440E-5	 1.0390E-5	1.043463E-5	1.041436E-5	1.043468E-5	1.046817E-5	1.042130E-5	  -20.0109	    9.0685	    4.4216	  -29.8844	
  940.0000	 1.0645E-5	 1.0660E-5	 1.0660E-5	 1.0630E-5	 1.0630E-5	1.062764E-5	1.064112E-5	1.061635E-5	1.060385E-5	1.064923E-5	  -20.0109	    9.0685	    4.4197	  -29.8889	
  960.0000	 1.0842E-5	 1.0850E-5	 1.0840E-5	 1.0830E-5	 1.0850E-5	1.086196E-5	1.089569E-5	1.086565E-5	1.084552E-5	1.084100E-5	  -20.0160	    9.0751	    4.4206	  -29.8819	
  980.0000	 1.1070E-5	 1.1120E-5	 1.1090E-5	 1.1050E-5	 1.1020E-5	1.107105E-5	1.106979E-5	1.106202E-5	1.106621E-5	1.108619E-5	  -20.0160	    9.0682	    4.4383	  -29.8448	
 1000.0000	 1.1313E-5	 1.1290E-5	 1.1320E-5	 1.1320E-5	 1.1320E-5	1.131871E-5	1.128609E-5	1.129514E-5	1.132202E-5	1.137158E-5	  -20.0059	    9.0855	    4.4519	  -29.8002	
