GCD Test
Bias: 5000.000000
IV_37398_031_PSS_HM_XX_DIODEHALFPSTOP_GR
Date/Time: 11/8/2021 5:44:30 PM
Sensor Name: DIODEHALFPSTOP
Type: P
Annealing Status: Not Irradiated and not Annealed
Environment: 20C
Tester: Andrew Kent

Time Delay per Ramp Step (s): 0.500

CV Time Delay per Measurement (s) :0.500

AC Voltage (V): 0.500

Current Number of measurements per voltage: 1.000

IV Time Delay per Measurement (s) :0.000


BiasVoltage	Total Current_Avg	Total Current_0	Bias Current_Avg	Bias Current_0	Temperature	Air_Temp	Humidity	Dewpoint	
   -5.0000	1.9400E-10	1.9400E-10	-1.747177E-11	-1.747177E-11	   20.0631	   21.6726	    6.9519	  -15.6965	
  -10.0000	1.5200E-10	1.5200E-10	-1.790222E-11	-1.790222E-11	   20.0631	   21.6717	    6.9042	  -15.7799	
  -15.0000	1.2100E-10	1.2100E-10	-1.879733E-11	-1.879733E-11	   20.0631	   21.6775	    6.8533	  -15.8644	
  -20.0000	1.9800E-10	1.9800E-10	-1.889164E-11	-1.889164E-11	   20.0631	   21.6747	    6.8011	  -15.9580	
  -25.0000	-1.4000E-11	-1.4000E-11	-1.947425E-11	-1.947425E-11	   20.0631	   21.6745	    6.7565	  -16.0370	
  -30.0000	1.1100E-10	1.1100E-10	-1.977718E-11	-1.977718E-11	   20.0631	   21.6759	    6.7122	  -16.1146	
  -35.0000	6.5000E-11	6.5000E-11	-2.077740E-11	-2.077740E-11	   20.0605	   21.6695	    6.7097	  -16.1238	
  -40.0000	1.7000E-11	1.7000E-11	-2.172853E-11	-2.172853E-11	   20.0631	   21.6721	    6.6790	  -16.1767	
  -45.0000	-2.7000E-11	-2.7000E-11	-2.246169E-11	-2.246169E-11	   20.0631	   21.6706	    6.6622	  -16.2078	
  -50.0000	-2.3600E-10	-2.3600E-10	-2.250874E-11	-2.250874E-11	   20.0631	   21.6694	    6.6540	  -16.2234	
  -55.0000	-1.9800E-10	-1.9800E-10	-2.256049E-11	-2.256049E-11	   20.0631	   21.6741	    6.6360	  -16.2525	
  -60.0000	3.8000E-11	3.8000E-11	-2.244132E-11	-2.244132E-11	   20.0631	   21.6727	    6.6252	  -16.2728	
  -65.0000	-2.3700E-10	-2.3700E-10	-2.346700E-11	-2.346700E-11	   20.0631	   21.6727	    6.6142	  -16.2728	
  -70.0000	-2.1900E-10	-2.1900E-10	-2.384347E-11	-2.384347E-11	   20.0631	   21.6722	    6.6142	  -16.2932	
  -75.0000	-5.1000E-11	-5.1000E-11	-2.400195E-11	-2.400195E-11	   20.0631	   21.6722	    6.5923	  -16.2932	
  -80.0000	-2.5000E-11	-2.5000E-11	-2.350388E-11	-2.350388E-11	   20.0631	   21.6694	    6.5923	  -16.3346	
  -85.0000	-9.4000E-11	-9.4000E-11	-2.488036E-11	-2.488036E-11	   20.0631	   21.6705	    6.5835	  -16.3499	
  -90.0000	-2.3200E-10	-2.3200E-10	-2.435091E-11	-2.435091E-11	   20.0631	   21.6705	    6.5806	  -16.3499	
  -95.0000	-3.0700E-10	-3.0700E-10	-2.494472E-11	-2.494472E-11	   20.0631	   21.6705	    6.5806	  -16.3551	
 -100.0000	-1.4300E-10	-1.4300E-10	-2.517717E-11	-2.517717E-11	   20.0631	   21.6714	    6.5765	  -16.3619	
 -105.0000	-2.1100E-10	-2.1100E-10	-2.548375E-11	-2.548375E-11	   20.0631	   21.6737	    6.5696	  -16.3728	
 -110.0000	-1.5800E-10	-1.5800E-10	-2.519794E-11	-2.519794E-11	   20.0631	   21.6701	    6.5718	  -16.3714	
 -115.0000	-1.5700E-10	-1.5700E-10	-2.599345E-11	-2.599345E-11	   20.0631	   21.6708	    6.5626	  -16.3876	
 -120.0000	-1.3300E-10	-1.3300E-10	-2.571253E-11	-2.571253E-11	   20.0631	   21.6715	    6.5547	  -16.4014	
 -125.0000	-2.4800E-10	-2.4800E-10	-2.642123E-11	-2.642123E-11	   20.0631	   21.6715	    6.5430	  -16.4227	
 -130.0000	-2.6300E-10	-2.6300E-10	-2.643041E-11	-2.643041E-11	   20.0631	   21.6689	    6.5493	  -16.4131	
 -135.0000	-1.6300E-10	-1.6300E-10	-2.675512E-11	-2.675512E-11	   20.0631	   21.6691	    6.5557	  -16.4014	
 -140.0000	-1.8500E-10	-1.8500E-10	-2.705376E-11	-2.705376E-11	   20.0631	   21.6685	    6.5408	  -16.4290	
 -145.0000	-1.8500E-10	-1.8500E-10	-2.710978E-11	-2.710978E-11	   20.0631	   21.6694	    6.5436	  -16.4231	
 -150.0000	-2.2600E-10	-2.2600E-10	-2.773068E-11	-2.773068E-11	   20.0631	   21.6651	    6.5427	  -16.4280	
 -155.0000	-2.1100E-10	-2.1100E-10	-2.733141E-11	-2.733141E-11	   20.0631	   21.6651	    6.5427	  -16.4280	
 -160.0000	-2.6100E-10	-2.6100E-10	-2.767915E-11	-2.767915E-11	   20.0631	   21.6655	    6.5357	  -16.4225	
 -165.0000	-2.3300E-10	-2.3300E-10	-2.776023E-11	-2.776023E-11	   20.0631	   21.6655	    6.5411	  -16.4404	
 -170.0000	-3.0200E-10	-3.0200E-10	-2.843267E-11	-2.843267E-11	   20.0631	   21.6630	    6.5459	  -16.4324	
 -175.0000	-2.2900E-10	-2.2900E-10	-2.883480E-11	-2.883480E-11	   20.0631	   21.6629	    6.5474	  -16.4238	
 -180.0000	-2.8300E-10	-2.8300E-10	-2.943962E-11	-2.943962E-11	   20.0631	   21.6631	    6.5462	  -16.4208	
 -185.0000	-3.0000E-10	-3.0000E-10	-2.949015E-11	-2.949015E-11	   20.0631	   21.6661	    6.5465	  -16.4209	
 -190.0000	-2.9600E-10	-2.9600E-10	-3.021046E-11	-3.021046E-11	   20.0605	   21.6641	    6.5481	  -16.4218	
 -195.0000	-3.3200E-10	-3.3200E-10	-3.104730E-11	-3.104730E-11	   20.0605	   21.6617	    6.5503	  -16.4207	
 -200.0000	-2.7400E-10	-2.7400E-10	-3.150424E-11	-3.150424E-11	   20.0631	   21.6660	    6.5500	  -16.4135	
 -205.0000	-2.7700E-10	-2.7700E-10	-3.285464E-11	-3.285464E-11	   20.0631	   21.6674	    6.5500	  -16.4130	
 -210.0000	-3.1000E-10	-3.1000E-10	-3.425293E-11	-3.425293E-11	   20.0605	   21.6629	    6.5553	  -16.4066	
 -215.0000	-2.8700E-10	-2.8700E-10	-3.544220E-11	-3.544220E-11	   20.0605	   21.6651	    6.5607	  -16.3951	
 -220.0000	-3.7600E-10	-3.7600E-10	-3.671907E-11	-3.671907E-11	   20.0605	   21.6585	    6.5538	  -16.4126	
 -225.0000	-3.0400E-10	-3.0400E-10	-3.825770E-11	-3.825770E-11	   20.0605	   21.6619	    6.5585	  -16.4016	
 -230.0000	-3.4900E-10	-3.4900E-10	-3.970139E-11	-3.970139E-11	   20.0605	   21.6623	    6.5522	  -16.4128	
 -235.0000	-3.7000E-10	-3.7000E-10	-4.164236E-11	-4.164236E-11	   20.0605	   21.6644	    6.5588	  -16.3991	
 -240.0000	-3.2600E-10	-3.2600E-10	-4.396081E-11	-4.396081E-11	   20.0605	   21.6624	    6.5648	  -16.3897	
 -245.0000	-3.4500E-10	-3.4500E-10	-4.589485E-11	-4.589485E-11	   20.0605	   21.6646	    6.5689	  -16.3806	
 -250.0000	-3.6600E-10	-3.6600E-10	-4.817539E-11	-4.817539E-11	   20.0605	   21.6629	    6.5595	  -16.3991	
 -255.0000	-3.6900E-10	-3.6900E-10	-5.046348E-11	-5.046348E-11	   20.0605	   21.6624	    6.5626	  -16.3937	
 -260.0000	-3.6500E-10	-3.6500E-10	-5.181348E-11	-5.181348E-11	   20.0605	   21.6612	    6.5617	  -16.3963	
 -265.0000	-3.6700E-10	-3.6700E-10	-5.339568E-11	-5.339568E-11	   20.0605	   21.6600	    6.5610	  -16.3984	
 -270.0000	-4.3200E-10	-4.3200E-10	-5.465974E-11	-5.465974E-11	   20.0605	   21.6652	    6.5708	  -16.3767	
 -275.0000	-3.8200E-10	-3.8200E-10	-5.578400E-11	-5.578400E-11	   20.0605	   21.6678	    6.5753	  -16.3668	
 -280.0000	-3.9000E-10	-3.9000E-10	-5.652898E-11	-5.652898E-11	   20.0605	   21.6617	    6.5623	  -16.3948	
 -285.0000	-4.4900E-10	-4.4900E-10	-5.742511E-11	-5.742511E-11	   20.0579	   21.6593	    6.5743	  -16.3747	
 -290.0000	-4.4600E-10	-4.4600E-10	-5.798837E-11	-5.798837E-11	   20.0605	   21.6607	    6.5712	  -16.3794	
 -295.0000	-4.1100E-10	-4.1100E-10	-5.920821E-11	-5.920821E-11	   20.0579	   21.6628	    6.5693	  -16.3814	
 -300.0000	-4.6400E-10	-4.6400E-10	-6.005220E-11	-6.005220E-11	   20.0605	   21.6658	    6.5655	  -16.3860	
 -305.0000	-4.2200E-10	-4.2200E-10	-6.058632E-11	-6.058632E-11	   20.0579	   21.6656	    6.5696	  -16.3787	
 -310.0000	-4.6700E-10	-4.6700E-10	-6.137063E-11	-6.137063E-11	   20.0579	   21.6642	    6.5699	  -16.3791	
 -315.0000	-4.6100E-10	-4.6100E-10	-6.226369E-11	-6.226369E-11	   20.0579	   21.6671	    6.5699	  -16.3770	
 -320.0000	-4.7500E-10	-4.7500E-10	-6.268455E-11	-6.268455E-11	   20.0605	   21.6635	    6.5705	  -16.3785	
 -325.0000	-4.7000E-10	-4.7000E-10	-6.292146E-11	-6.292146E-11	   20.0579	   21.6686	    6.5740	  -16.3685	
 -330.0000	-5.0100E-10	-5.0100E-10	-6.367498E-11	-6.367498E-11	   20.0579	   21.6670	    6.5670	  -16.3823	
 -335.0000	-5.7700E-10	-5.7700E-10	-6.381208E-11	-6.381208E-11	   20.0579	   21.6640	    6.5648	  -16.3885	
 -340.0000	-5.7200E-10	-5.7200E-10	-6.447110E-11	-6.447110E-11	   20.0579	   21.6691	    6.5822	  -16.3532	
 -345.0000	-5.8600E-10	-5.8600E-10	-6.480908E-11	-6.480908E-11	   20.0579	   21.6699	    6.5636	  -16.3865	
 -350.0000	-5.9500E-10	-5.9500E-10	-6.555852E-11	-6.555852E-11	   20.0605	   21.6692	    6.5708	  -16.3738	
 -355.0000	-5.4200E-10	-5.4200E-10	-6.539759E-11	-6.539759E-11	   20.0579	   21.6699	    6.5601	  -16.3928	
 -360.0000	-5.5500E-10	-5.5500E-10	-6.568787E-11	-6.568787E-11	   20.0579	   21.6652	    6.5661	  -16.3853	
 -365.0000	-4.8200E-10	-4.8200E-10	-6.610915E-11	-6.610915E-11	   20.0605	   21.6675	    6.5579	  -16.3986	
 -370.0000	-6.2400E-10	-6.2400E-10	-6.617433E-11	-6.617433E-11	   20.0579	   21.6666	    6.5601	  -16.3952	
 -375.0000	-5.2400E-10	-5.2400E-10	-6.645381E-11	-6.645381E-11	   20.0579	   21.6664	    6.5677	  -16.3816	
 -380.0000	-4.9400E-10	-4.9400E-10	-6.675286E-11	-6.675286E-11	   20.0579	   21.6662	    6.5614	  -16.3932	
 -385.0000	-4.9900E-10	-4.9900E-10	-6.718087E-11	-6.718087E-11	   20.0579	   21.6662	    6.5614	  -16.3932	
 -390.0000	-5.0000E-10	-5.0000E-10	-6.762781E-11	-6.762781E-11	   20.0605	   21.6632	    6.5667	  -16.3845	
 -395.0000	-5.4800E-10	-5.4800E-10	-6.782277E-11	-6.782277E-11	   20.0579	   21.6632	    6.5645	  -16.3856	
 -400.0000	-5.3400E-10	-5.3400E-10	-6.827135E-11	-6.827135E-11	   20.0579	   21.6663	    6.5620	  -16.3874	
 -410.0000	-5.9700E-10	-5.9700E-10	-6.892525E-11	-6.892525E-11	   20.0579	   21.6634	    6.5569	  -16.3941	
 -420.0000	-7.4500E-10	-7.4500E-10	-6.879772E-11	-6.879772E-11	   20.0579	   21.6632	    6.5569	  -16.4035	
 -430.0000	-7.7500E-10	-7.7500E-10	-6.967103E-11	-6.967103E-11	   20.0579	   21.6642	    6.5572	  -16.4022	
 -440.0000	-7.8500E-10	-7.8500E-10	-7.008213E-11	-7.008213E-11	   20.0579	   21.6630	    6.5560	  -16.4054	
 -450.0000	-8.1400E-10	-8.1400E-10	-7.041376E-11	-7.041376E-11	   20.0579	   21.6583	    6.5569	  -16.4070	
 -460.0000	-8.6700E-10	-8.6700E-10	-7.092510E-11	-7.092510E-11	   20.0579	   21.6607	    6.5465	  -16.4243	
 -470.0000	-7.8200E-10	-7.8200E-10	-7.162279E-11	-7.162279E-11	   20.0605	   21.6599	    6.5544	  -16.4105	
 -480.0000	-8.7200E-10	-8.7200E-10	-7.158699E-11	-7.158699E-11	   20.0605	   21.6619	    6.5651	  -16.3894	
 -490.0000	-8.8600E-10	-8.8600E-10	-7.252016E-11	-7.252016E-11	   20.0605	   21.6616	    6.5538	  -16.4104	
 -500.0000	-7.9200E-10	-7.9200E-10	-7.226798E-11	-7.226798E-11	   20.0553	   21.6633	    6.5538	  -16.4092	
 -510.0000	-9.2400E-10	-9.2400E-10	-7.253848E-11	-7.253848E-11	   20.0579	   21.6629	    6.5689	  -16.3818	
 -520.0000	-8.0000E-10	-8.0000E-10	-7.297608E-11	-7.297608E-11	   20.0579	   21.6589	    6.5601	  -16.4009	
 -530.0000	-8.2100E-10	-8.2100E-10	-7.369516E-11	-7.369516E-11	   20.0605	   21.6630	    6.5560	  -16.4054	
 -540.0000	-8.5300E-10	-8.5300E-10	-7.414170E-11	-7.414170E-11	   20.0579	   21.6609	    6.5509	  -16.4161	
 -550.0000	-8.7800E-10	-8.7800E-10	-7.456236E-11	-7.456236E-11	   20.0579	   21.6609	    6.5531	  -16.4161	
 -560.0000	-8.9100E-10	-8.9100E-10	-7.454019E-11	-7.454019E-11	   20.0579	   21.6588	    6.5601	  -16.4136	
 -570.0000	-8.9800E-10	-8.9800E-10	-7.510181E-11	-7.510181E-11	   20.0579	   21.6598	    6.5601	  -16.4002	
 -580.0000	-8.8300E-10	-8.8300E-10	-7.512299E-11	-7.512299E-11	   20.0579	   21.6645	    6.5484	  -16.4180	
 -590.0000	-9.0900E-10	-9.0900E-10	-7.565322E-11	-7.565322E-11	   20.0579	   21.6641	    6.5408	  -16.4322	
 -600.0000	-9.5700E-10	-9.5700E-10	-7.555586E-11	-7.555586E-11	   20.0579	   21.6614	    6.5436	  -16.4290	
 -610.0000	-9.7000E-10	-9.7000E-10	-7.600588E-11	-7.600588E-11	   20.0605	   21.6606	    6.5462	  -16.4250	
 -620.0000	-9.7600E-10	-9.7600E-10	-7.626196E-11	-7.626196E-11	   20.0605	   21.6600	    6.5436	  -16.4300	
 -630.0000	-9.8500E-10	-9.8500E-10	-7.695741E-11	-7.695741E-11	   20.0579	   21.6600	    6.5398	  -16.4369	
 -640.0000	-9.9400E-10	-9.9400E-10	-7.683579E-11	-7.683579E-11	   20.0579	   21.6624	    6.5519	  -16.4133	
 -650.0000	-1.0100E-9	-1.0100E-9	-7.657585E-11	-7.657585E-11	   20.0579	   21.6648	    6.5367	  -16.4392	
 -660.0000	-1.0160E-9	-1.0160E-9	-7.718554E-11	-7.718554E-11	   20.0579	   21.6569	    6.5278	  -16.4611	
 -670.0000	-1.0230E-9	-1.0230E-9	-7.789837E-11	-7.789837E-11	   20.0579	   21.6605	    6.5335	  -16.4481	
 -680.0000	-1.1830E-9	-1.1830E-9	-7.755632E-11	-7.755632E-11	   20.0579	   21.6604	    6.5389	  -16.4383	
 -690.0000	-1.0440E-9	-1.0440E-9	-7.799264E-11	-7.799264E-11	   20.0579	   21.6604	    6.5383	  -16.4383	
 -700.0000	-1.0400E-9	-1.0400E-9	-7.806296E-11	-7.806296E-11	   20.0579	   21.6604	    6.5281	  -16.4395	
 -710.0000	-1.0850E-9	-1.0850E-9	-7.840579E-11	-7.840579E-11	   20.0579	   21.6626	    6.5281	  -16.4564	
 -720.0000	-1.0910E-9	-1.0910E-9	-7.893360E-11	-7.893360E-11	   20.0579	   21.6608	    6.5332	  -16.4484	
 -730.0000	-1.1670E-9	-1.1670E-9	-7.898536E-11	-7.898536E-11	   20.0579	   21.6644	    6.5348	  -16.4429	
 -740.0000	-1.1160E-9	-1.1160E-9	-7.952765E-11	-7.952765E-11	   20.0579	   21.6587	    6.5326	  -16.4512	
 -750.0000	-1.1120E-9	-1.1120E-9	-7.977392E-11	-7.977392E-11	   20.0579	   21.6613	    6.5253	  -16.4625	
 -760.0000	-1.1540E-9	-1.1540E-9	-8.006850E-11	-8.006850E-11	   20.0553	   21.6593	    6.5199	  -16.4738	
 -770.0000	-1.1530E-9	-1.1530E-9	-8.044151E-11	-8.044151E-11	   20.0553	   21.6603	    6.5310	  -16.4528	
 -780.0000	-1.1770E-9	-1.1770E-9	-8.018746E-11	-8.018746E-11	   20.0579	   21.6613	    6.5193	  -16.4735	
 -790.0000	-1.1860E-9	-1.1860E-9	-8.046083E-11	-8.046083E-11	   20.0579	   21.6583	    6.5259	  -16.4635	
 -800.0000	-1.1980E-9	-1.1980E-9	-8.102288E-11	-8.102288E-11	   20.0579	   21.6575	    6.5133	  -16.4873	
 -810.0000	-1.1620E-9	-1.1620E-9	-8.099963E-11	-8.099963E-11	   20.0579	   21.6580	    6.5202	  -16.4742	
 -820.0000	-1.2200E-9	-1.2200E-9	-8.154112E-11	-8.154112E-11	   20.0579	   21.6574	    6.5155	  -16.4833	
 -830.0000	-1.1970E-9	-1.1970E-9	-8.166621E-11	-8.166621E-11	   20.0579	   21.6590	    6.5108	  -16.4908	
 -840.0000	-1.2560E-9	-1.2560E-9	-8.239689E-11	-8.239689E-11	   20.0579	   21.6617	    6.5089	  -16.4923	
 -850.0000	-1.2610E-9	-1.2610E-9	-8.235676E-11	-8.235676E-11	   20.0579	   21.6609	    6.5111	  -16.4888	
 -860.0000	-1.2940E-9	-1.2940E-9	-8.224249E-11	-8.224249E-11	   20.0579	   21.6626	    6.5139	  -16.4824	
 -870.0000	-1.2940E-9	-1.2940E-9	-8.276053E-11	-8.276053E-11	   20.0605	   21.6626	    6.5066	  -16.4824	
 -880.0000	-1.2830E-9	-1.2830E-9	-8.296628E-11	-8.296628E-11	   20.0605	   21.6605	    6.5066	  -16.4972	
 -890.0000	-1.3540E-9	-1.3540E-9	-8.299970E-11	-8.299970E-11	   20.0579	   21.6605	    6.5089	  -16.4972	
 -900.0000	-1.5100E-9	-1.5100E-9	-8.352238E-11	-8.352238E-11	   20.0579	   21.6658	    6.5089	  -16.4893	
 -910.0000	-1.3760E-9	-1.3760E-9	-8.327957E-11	-8.327957E-11	   20.0579	   21.6615	    6.5114	  -16.4878	
 -920.0000	-1.4740E-9	-1.4740E-9	-8.360040E-11	-8.360040E-11	   20.0579	   21.6615	    6.5025	  -16.5041	
 -930.0000	-1.4590E-9	-1.4590E-9	-8.392088E-11	-8.392088E-11	   20.0579	   21.6626	    6.4968	  -16.5137	
 -940.0000	-1.5070E-9	-1.5070E-9	-8.430016E-11	-8.430016E-11	   20.0579	   21.6626	    6.5000	  -16.5137	
 -950.0000	-1.5650E-9	-1.5650E-9	-8.450901E-11	-8.450901E-11	   20.0579	   21.6622	    6.5000	  -16.5082	
 -960.0000	-1.6920E-9	-1.6920E-9	-8.474756E-11	-8.474756E-11	   20.0579	   21.6622	    6.5022	  -16.5082	
 -970.0000	-1.6330E-9	-1.6330E-9	-8.520203E-11	-8.520203E-11	   20.0579	   21.6639	    6.5022	  -16.5029	
 -980.0000	-1.6170E-9	-1.6170E-9	-8.511545E-11	-8.511545E-11	   20.0579	   21.6639	    6.4978	  -16.5029	
 -990.0000	-1.6750E-9	-1.6750E-9	-8.571862E-11	-8.571862E-11	   20.0579	   21.6604	    6.4978	  -16.5135	
-1000.0000	-1.7490E-9	-1.7490E-9	-8.560110E-11	-8.560110E-11	   20.0579	   21.6626	    6.5013	  -16.5056	
