34253_037_PSS_XX_HM_IrradSensor
Date/Time: 5/27/2021 2:47:54 PM
Sensor Name: 34253_037_PSS_XX_HM_IrradSensor
Type: P
Annealing Status: 1100 minutes
Environment: -20C
Tester: Eric Spencer
Notes: Irradiated at 1.1e15 at RINSC.  Annealed in Alibava

Time Delay per Ramp Step (s): 1.000

CV Time Delay per Measurement (s) :0.500

AC Voltage (V): 0.500

Current Number of measurements per voltage: 4.000

IV Time Delay per Measurement (s) :0.500


BiasVoltage	Bias Current_Avg	Bias Current_0	Bias Current_1	Bias Current_2	Bias Current_3	Temperature	Air_Temp	Humidity	Dewpoint	
  -10.0000	-4.0000E-8	-4.0000E-8	-4.0000E-8	-4.0000E-8	-4.0000E-8	  -19.9000	   26.4617	    1.8475	    0.0000	
  -20.0000	-7.2000E-7	-7.2000E-7	-7.2000E-7	-7.2000E-7	-7.2000E-7	  -19.9000	   26.4617	    1.8475	    0.0000	
  -30.0000	-1.8400E-6	-1.8400E-6	-1.8400E-6	-1.8400E-6	-1.8400E-6	  -19.9000	   26.4617	    1.8475	    0.0000	
  -40.0000	-2.4700E-6	-2.4700E-6	-2.4700E-6	-2.4700E-6	-2.4700E-6	  -19.9000	   26.4617	    1.8475	    0.0000	
  -50.0000	-2.7300E-6	-2.7300E-6	-2.7300E-6	-2.7300E-6	-2.7300E-6	  -19.9000	   26.4617	    1.8475	    0.0000	
  -60.0000	-2.9800E-6	-2.9800E-6	-2.9800E-6	-2.9800E-6	-2.9800E-6	  -19.9000	   26.4617	    1.8475	    0.0000	
  -70.0000	-3.2100E-6	-3.2100E-6	-3.2100E-6	-3.2100E-6	-3.2100E-6	  -19.9000	   26.4617	    1.8475	    0.0000	
  -80.0000	-3.4300E-6	-3.4300E-6	-3.4300E-6	-3.4300E-6	-3.4300E-6	  -19.9000	   26.4617	    1.8475	    0.0000	
  -90.0000	-3.6500E-6	-3.6500E-6	-3.6500E-6	-3.6500E-6	-3.6500E-6	  -19.9000	   26.4617	    1.8475	    0.0000	
 -100.0000	-3.8600E-6	-3.8600E-6	-3.8600E-6	-3.8600E-6	-3.8600E-6	  -19.9000	   26.4617	    1.8475	    0.0000	
 -110.0000	-4.0700E-6	-4.0700E-6	-4.0700E-6	-4.0700E-6	-4.0700E-6	  -19.9000	   26.4617	    1.8475	    0.0000	
 -120.0000	-4.2700E-6	-4.2700E-6	-4.2700E-6	-4.2700E-6	-4.2700E-6	  -19.9000	   26.4617	    1.8475	    0.0000	
 -130.0000	-4.4700E-6	-4.4700E-6	-4.4700E-6	-4.4700E-6	-4.4700E-6	  -19.9000	   26.4617	    1.8475	    0.0000	
 -140.0000	-4.6600E-6	-4.6600E-6	-4.6600E-6	-4.6600E-6	-4.6600E-6	  -19.9000	   26.4617	    1.8475	    0.0000	
 -150.0000	-4.8600E-6	-4.8600E-6	-4.8600E-6	-4.8600E-6	-4.8600E-6	  -19.9000	   26.4617	    1.8475	    0.0000	
 -160.0000	-5.0500E-6	-5.0500E-6	-5.0500E-6	-5.0500E-6	-5.0500E-6	  -19.9000	   26.4617	    1.8475	    0.0000	
 -170.0000	-5.2400E-6	-5.2400E-6	-5.2400E-6	-5.2400E-6	-5.2400E-6	  -19.9000	   26.4617	    1.8475	    0.0000	
 -180.0000	-5.4400E-6	-5.4400E-6	-5.4400E-6	-5.4400E-6	-5.4400E-6	  -19.9000	   26.4617	    1.8475	    0.0000	
 -190.0000	-5.6200E-6	-5.6200E-6	-5.6200E-6	-5.6200E-6	-5.6200E-6	  -19.9000	   26.4617	    1.8475	    0.0000	
 -200.0000	-5.8200E-6	-5.8200E-6	-5.8200E-6	-5.8200E-6	-5.8200E-6	  -19.9000	   26.4617	    1.8475	    0.0000	
 -210.0000	-6.0100E-6	-6.0100E-6	-6.0100E-6	-6.0100E-6	-6.0100E-6	  -19.9000	   26.4617	    1.8475	    0.0000	
 -220.0000	-6.2100E-6	-6.2100E-6	-6.2100E-6	-6.2100E-6	-6.2100E-6	  -19.9000	   26.4617	    1.8475	    0.0000	
 -230.0000	-6.3900E-6	-6.3900E-6	-6.3900E-6	-6.3900E-6	-6.3900E-6	  -19.9000	   26.4617	    1.8475	    0.0000	
 -240.0000	-6.5900E-6	-6.5900E-6	-6.5900E-6	-6.5900E-6	-6.5900E-6	  -19.9000	   26.4617	    1.8475	    0.0000	
 -250.0000	-6.7800E-6	-6.7800E-6	-6.7800E-6	-6.7800E-6	-6.7800E-6	  -19.9000	   26.4617	    1.8475	    0.0000	
 -260.0000	-6.9700E-6	-6.9700E-6	-6.9700E-6	-6.9700E-6	-6.9700E-6	  -19.9000	   26.4617	    1.8475	    0.0000	
 -270.0000	-7.1600E-6	-7.1600E-6	-7.1600E-6	-7.1600E-6	-7.1600E-6	  -19.9000	   26.4617	    1.8475	    0.0000	
 -280.0000	-7.3500E-6	-7.3500E-6	-7.3500E-6	-7.3500E-6	-7.3500E-6	  -19.9000	   26.4617	    1.8475	    0.0000	
 -290.0000	-7.5400E-6	-7.5400E-6	-7.5400E-6	-7.5400E-6	-7.5400E-6	  -19.9000	   26.4617	    1.8475	    0.0000	
 -300.0000	-7.7300E-6	-7.7300E-6	-7.7300E-6	-7.7300E-6	-7.7300E-6	  -19.9000	   26.4617	    1.8475	    0.0000	
 -310.0000	-7.9200E-6	-7.9200E-6	-7.9200E-6	-7.9200E-6	-7.9200E-6	  -19.9000	   26.4617	    1.8475	    0.0000	
 -320.0000	-8.1100E-6	-8.1100E-6	-8.1100E-6	-8.1100E-6	-8.1100E-6	  -19.9000	   26.4617	    1.8475	    0.0000	
 -330.0000	-8.3000E-6	-8.3000E-6	-8.3000E-6	-8.3000E-6	-8.3000E-6	  -19.9000	   26.4617	    1.8475	    0.0000	
 -340.0000	-8.4900E-6	-8.4900E-6	-8.4900E-6	-8.4900E-6	-8.4900E-6	  -19.9000	   26.4617	    1.8475	    0.0000	
 -350.0000	-8.6700E-6	-8.6700E-6	-8.6700E-6	-8.6700E-6	-8.6700E-6	  -19.9000	   26.4617	    1.8475	    0.0000	
 -360.0000	-8.8700E-6	-8.8700E-6	-8.8700E-6	-8.8700E-6	-8.8700E-6	  -19.9000	   26.4617	    1.8475	    0.0000	
 -370.0000	-9.0500E-6	-9.0500E-6	-9.0500E-6	-9.0500E-6	-9.0500E-6	  -19.9000	   26.4617	    1.8475	    0.0000	
 -380.0000	-9.2400E-6	-9.2400E-6	-9.2400E-6	-9.2400E-6	-9.2400E-6	  -19.9000	   26.4617	    1.8475	    0.0000	
 -390.0000	-9.4200E-6	-9.4200E-6	-9.4200E-6	-9.4200E-6	-9.4200E-6	  -19.9000	   26.4617	    1.8475	    0.0000	
 -400.0000	-9.6100E-6	-9.6100E-6	-9.6100E-6	-9.6100E-6	-9.6100E-6	  -19.9000	   26.4617	    1.8475	    0.0000	
 -410.0000	-9.8000E-6	-9.8000E-6	-9.8000E-6	-9.8000E-6	-9.8000E-6	  -19.9000	   26.4617	    1.8475	    0.0000	
 -420.0000	-9.9800E-6	-9.9800E-6	-9.9800E-6	-9.9800E-6	-9.9800E-6	  -19.9000	   26.4617	    1.8475	    0.0000	
 -430.0000	-1.0160E-5	-1.0160E-5	-1.0160E-5	-1.0160E-5	-1.0160E-5	  -19.9000	   26.4617	    1.8475	    0.0000	
 -440.0000	-1.0330E-5	-1.0330E-5	-1.0330E-5	-1.0330E-5	-1.0330E-5	  -19.9000	   26.4617	    1.8475	    0.0000	
 -450.0000	-1.0520E-5	-1.0520E-5	-1.0520E-5	-1.0520E-5	-1.0520E-5	  -19.9000	   26.4617	    1.8475	    0.0000	
 -460.0000	-1.0690E-5	-1.0690E-5	-1.0690E-5	-1.0690E-5	-1.0690E-5	  -19.9000	   26.4617	    1.8475	    0.0000	
 -470.0000	-1.0870E-5	-1.0870E-5	-1.0870E-5	-1.0870E-5	-1.0870E-5	  -19.9000	   26.4617	    1.8475	    0.0000	
 -480.0000	-1.1040E-5	-1.1040E-5	-1.1040E-5	-1.1040E-5	-1.1040E-5	  -19.9000	   26.4617	    1.8475	    0.0000	
 -490.0000	-1.1210E-5	-1.1210E-5	-1.1210E-5	-1.1210E-5	-1.1210E-5	  -19.9000	   26.4617	    1.8475	    0.0000	
 -500.0000	-1.1390E-5	-1.1390E-5	-1.1390E-5	-1.1390E-5	-1.1390E-5	  -19.9000	   26.4617	    1.8475	    0.0000	
 -510.0000	-1.1550E-5	-1.1550E-5	-1.1550E-5	-1.1550E-5	-1.1550E-5	  -19.9000	   26.4617	    1.8475	    0.0000	
 -520.0000	-1.1730E-5	-1.1730E-5	-1.1730E-5	-1.1730E-5	-1.1730E-5	  -19.9000	   26.4617	    1.8475	    0.0000	
 -530.0000	-1.1900E-5	-1.1900E-5	-1.1900E-5	-1.1900E-5	-1.1900E-5	  -19.9000	   26.4617	    1.8475	    0.0000	
 -540.0000	-1.2060E-5	-1.2060E-5	-1.2060E-5	-1.2060E-5	-1.2060E-5	  -19.9000	   26.4617	    1.8475	    0.0000	
 -550.0000	-1.2220E-5	-1.2220E-5	-1.2220E-5	-1.2220E-5	-1.2220E-5	  -19.9000	   26.4617	    1.8475	    0.0000	
 -560.0000	-1.2380E-5	-1.2380E-5	-1.2380E-5	-1.2380E-5	-1.2380E-5	  -19.9000	   26.4617	    1.8475	    0.0000	
 -570.0000	-1.2540E-5	-1.2540E-5	-1.2540E-5	-1.2540E-5	-1.2540E-5	  -19.9000	   26.4617	    1.8475	    0.0000	
 -580.0000	-1.2700E-5	-1.2700E-5	-1.2700E-5	-1.2700E-5	-1.2700E-5	  -19.9000	   26.4617	    1.8475	    0.0000	
 -590.0000	-1.2860E-5	-1.2860E-5	-1.2860E-5	-1.2860E-5	-1.2860E-5	  -19.9000	   26.4617	    1.8475	    0.0000	
 -600.0000	-1.3010E-5	-1.3010E-5	-1.3010E-5	-1.3010E-5	-1.3010E-5	  -19.9000	   26.4617	    1.8475	    0.0000	
 -610.0000	-1.3170E-5	-1.3170E-5	-1.3170E-5	-1.3170E-5	-1.3170E-5	  -19.9000	   26.4617	    1.8475	    0.0000	
 -620.0000	-1.3320E-5	-1.3320E-5	-1.3320E-5	-1.3320E-5	-1.3320E-5	  -19.9000	   26.4617	    1.8475	    0.0000	
 -630.0000	-1.3470E-5	-1.3470E-5	-1.3470E-5	-1.3470E-5	-1.3470E-5	  -19.9000	   26.4617	    1.8475	    0.0000	
 -640.0000	-1.3620E-5	-1.3620E-5	-1.3620E-5	-1.3620E-5	-1.3620E-5	  -19.9000	   26.4617	    1.8475	    0.0000	
 -650.0000	-1.3770E-5	-1.3770E-5	-1.3770E-5	-1.3770E-5	-1.3770E-5	  -19.9000	   26.4617	    1.8475	    0.0000	
 -660.0000	-1.3910E-5	-1.3910E-5	-1.3910E-5	-1.3910E-5	-1.3910E-5	  -19.9000	   26.4617	    1.8475	    0.0000	
 -670.0000	-1.4050E-5	-1.4050E-5	-1.4050E-5	-1.4050E-5	-1.4050E-5	  -19.9000	   26.4617	    1.8475	    0.0000	
 -680.0000	-1.4200E-5	-1.4200E-5	-1.4200E-5	-1.4200E-5	-1.4200E-5	  -19.9000	   26.4617	    1.8475	    0.0000	
 -690.0000	-1.4340E-5	-1.4340E-5	-1.4340E-5	-1.4340E-5	-1.4340E-5	  -19.9000	   26.4617	    1.8475	    0.0000	
 -700.0000	-1.4480E-5	-1.4480E-5	-1.4480E-5	-1.4480E-5	-1.4480E-5	  -19.9000	   26.4617	    1.8475	    0.0000	
 -710.0000	-1.4620E-5	-1.4620E-5	-1.4620E-5	-1.4620E-5	-1.4620E-5	  -19.9000	   26.4617	    1.8475	    0.0000	
 -720.0000	-1.4760E-5	-1.4760E-5	-1.4760E-5	-1.4760E-5	-1.4760E-5	  -19.9000	   26.4617	    1.8475	    0.0000	
 -730.0000	-1.4890E-5	-1.4890E-5	-1.4890E-5	-1.4890E-5	-1.4890E-5	  -19.9000	   26.4617	    1.8475	    0.0000	
 -740.0000	-1.5030E-5	-1.5030E-5	-1.5030E-5	-1.5030E-5	-1.5030E-5	  -19.9000	   26.4617	    1.8475	    0.0000	
 -750.0000	-1.5170E-5	-1.5170E-5	-1.5170E-5	-1.5170E-5	-1.5170E-5	  -19.9000	   26.4617	    1.8475	    0.0000	
 -760.0000	-1.5300E-5	-1.5300E-5	-1.5300E-5	-1.5300E-5	-1.5300E-5	  -19.9000	   26.4617	    1.8475	    0.0000	
 -770.0000	-1.5440E-5	-1.5440E-5	-1.5440E-5	-1.5440E-5	-1.5440E-5	  -19.9000	   26.4617	    1.8475	    0.0000	
 -780.0000	-1.5560E-5	-1.5560E-5	-1.5560E-5	-1.5560E-5	-1.5560E-5	  -19.9000	   26.4617	    1.8475	    0.0000	
 -790.0000	-1.5700E-5	-1.5700E-5	-1.5700E-5	-1.5700E-5	-1.5700E-5	  -19.9000	   26.4617	    1.8475	    0.0000	
 -800.0000	-1.5830E-5	-1.5830E-5	-1.5830E-5	-1.5830E-5	-1.5830E-5	  -19.9000	   26.4617	    1.8475	    0.0000	
 -810.0000	-1.5970E-5	-1.5970E-5	-1.5970E-5	-1.5970E-5	-1.5970E-5	  -19.9000	   26.4617	    1.8475	    0.0000	
 -820.0000	-1.6100E-5	-1.6100E-5	-1.6100E-5	-1.6100E-5	-1.6100E-5	  -19.9000	   26.4617	    1.8475	    0.0000	
 -830.0000	-1.6220E-5	-1.6220E-5	-1.6220E-5	-1.6220E-5	-1.6220E-5	  -19.9000	   26.4617	    1.8475	    0.0000	
 -840.0000	-1.6350E-5	-1.6350E-5	-1.6350E-5	-1.6350E-5	-1.6350E-5	  -19.9000	   26.4617	    1.8475	    0.0000	
 -850.0000	-1.6490E-5	-1.6490E-5	-1.6490E-5	-1.6490E-5	-1.6490E-5	  -19.9000	   26.4617	    1.8475	    0.0000	
 -860.0000	-1.6610E-5	-1.6610E-5	-1.6610E-5	-1.6610E-5	-1.6610E-5	  -19.9000	   26.4617	    1.8475	    0.0000	
 -870.0000	-1.6750E-5	-1.6750E-5	-1.6750E-5	-1.6750E-5	-1.6750E-5	  -19.9000	   26.4617	    1.8475	    0.0000	
 -880.0000	-1.6880E-5	-1.6880E-5	-1.6880E-5	-1.6880E-5	-1.6880E-5	  -19.9000	   26.4617	    1.8475	    0.0000	
 -890.0000	-1.7010E-5	-1.7010E-5	-1.7010E-5	-1.7010E-5	-1.7010E-5	  -19.9000	   26.4617	    1.8475	    0.0000	
 -900.0000	-1.7140E-5	-1.7140E-5	-1.7140E-5	-1.7140E-5	-1.7140E-5	  -19.9000	   26.4617	    1.8475	    0.0000	
 -910.0000	-1.7270E-5	-1.7270E-5	-1.7270E-5	-1.7270E-5	-1.7270E-5	  -19.9000	   26.4617	    1.8475	    0.0000	
 -920.0000	-1.7400E-5	-1.7400E-5	-1.7400E-5	-1.7400E-5	-1.7400E-5	  -19.9000	   26.4617	    1.8475	    0.0000	
 -930.0000	-1.7530E-5	-1.7530E-5	-1.7530E-5	-1.7530E-5	-1.7530E-5	  -19.9000	   26.4617	    1.8475	    0.0000	
 -940.0000	-1.7670E-5	-1.7670E-5	-1.7670E-5	-1.7670E-5	-1.7670E-5	  -19.9000	   26.4617	    1.8475	    0.0000	
 -950.0000	-1.7800E-5	-1.7800E-5	-1.7800E-5	-1.7800E-5	-1.7800E-5	  -19.9000	   26.4617	    1.8475	    0.0000	
 -960.0000	-1.7940E-5	-1.7940E-5	-1.7940E-5	-1.7940E-5	-1.7940E-5	  -19.9000	   26.4617	    1.8475	    0.0000	
 -970.0000	-1.8070E-5	-1.8070E-5	-1.8070E-5	-1.8070E-5	-1.8070E-5	  -19.9000	   26.4617	    1.8475	    0.0000	
 -980.0000	-1.8210E-5	-1.8210E-5	-1.8210E-5	-1.8210E-5	-1.8210E-5	  -19.9000	   26.4617	    1.8475	    0.0000	
 -990.0000	-1.8350E-5	-1.8350E-5	-1.8350E-5	-1.8350E-5	-1.8350E-5	  -19.9000	   26.4617	    1.8475	    0.0000	
-1000.0000	-1.8490E-5	-1.8490E-5	-1.8490E-5	-1.8490E-5	-1.8490E-5	  -19.9000	   26.4617	    1.8475	    0.0000	
