GCD Test
Bias: 5000.000000
IV_D0_CO138_LargeDiode_GRConnected_Irradiated_20min_at_60C
Date/Time: 7/30/2021 3:47:02 PM
Sensor Name: CO138
Type: N
Annealing Status: Irradiated, Annealed at 60C for 20 Minutes
Environment: RT
Tester: Andrew Kent

Time Delay per Ramp Step (s): 0.500

CV Time Delay per Measurement (s) :0.500

AC Voltage (V): 0.500

Current Number of measurements per voltage: 4.000

IV Time Delay per Measurement (s) :0.000


BiasVoltage	Total Current_Avg	Total Current_0	Total Current_1	Total Current_2	Total Current_3	Bias Current_Avg	Bias Current_0	Bias Current_1	Bias Current_2	Bias Current_3	Temperature	Air_Temp	Humidity	Dewpoint	
    1.0000	 3.5000E-7	 3.4970E-7	 3.4740E-7	 3.4960E-7	 3.5330E-7	3.342049E-7	3.351712E-7	3.325305E-7	3.343350E-7	3.347828E-7	  -19.9753	    7.0388	    9.5648	  -22.9951	
    2.0000	 4.9320E-7	 4.9330E-7	 4.9290E-7	 4.9270E-7	 4.9390E-7	4.537236E-7	4.539730E-7	4.539567E-7	4.530126E-7	4.539521E-7	  -19.9779	    7.0192	    9.5595	  -23.0165	
    3.0000	 5.9957E-7	 6.0160E-7	 5.9820E-7	 5.9910E-7	 5.9940E-7	5.468494E-7	5.467717E-7	5.477598E-7	5.456154E-7	5.472506E-7	  -19.9880	    6.9840	    9.5512	  -23.0533	
    4.0000	 6.9485E-7	 6.9390E-7	 6.9530E-7	 6.9540E-7	 6.9480E-7	6.272535E-7	6.271701E-7	6.282133E-7	6.265019E-7	6.271287E-7	  -19.9906	    7.0250	    9.5354	  -23.0403	
    5.0000	 7.7903E-7	 7.7700E-7	 7.7750E-7	 7.8130E-7	 7.8030E-7	7.016823E-7	7.054319E-7	7.014211E-7	7.010210E-7	6.988553E-7	  -19.9982	    7.0250	    9.5361	  -23.0396	
    6.0000	 8.5758E-7	 8.5850E-7	 8.5570E-7	 8.5630E-7	 8.5980E-7	7.701563E-7	7.702172E-7	7.722579E-7	7.697765E-7	7.683735E-7	  -19.9830	    6.9949	    9.5361	  -23.0627	
    7.0000	 9.3108E-7	 9.3260E-7	 9.3250E-7	 9.3020E-7	 9.2900E-7	8.333107E-7	8.344344E-7	8.359719E-7	8.310151E-7	8.318213E-7	  -19.9880	    7.0261	    9.5354	  -23.0394	
    8.0000	 1.0019E-6	 1.0033E-6	 1.0030E-6	 1.0023E-6	 9.9900E-7	8.900601E-7	8.897701E-7	8.901291E-7	8.918651E-7	8.884761E-7	  -19.9880	    7.0261	    9.5294	  -23.0465	
    9.0000	 1.0630E-6	 1.0670E-6	 1.0620E-6	 1.0600E-6	 1.0630E-6	9.437129E-7	9.442089E-7	9.411908E-7	9.435092E-7	9.459426E-7	  -19.9880	    6.9877	    9.5215	  -23.0854	
   10.0000	 1.1255E-6	 1.1220E-6	 1.1240E-6	 1.1280E-6	 1.1280E-6	1.002202E-6	1.002024E-6	1.000037E-6	1.001715E-6	1.005030E-6	  -19.9880	    6.9836	    9.5123	  -23.0994	
   20.0000	 1.6625E-6	 1.6660E-6	 1.6660E-6	 1.6590E-6	 1.6590E-6	1.452460E-6	1.452631E-6	1.457339E-6	1.447491E-6	1.452381E-6	  -19.9931	    7.0153	    9.5117	  -23.0758	
   30.0000	 2.1102E-6	 2.1100E-6	 2.1070E-6	 2.1120E-6	 2.1120E-6	1.817592E-6	1.821538E-6	1.815338E-6	1.815716E-6	1.817777E-6	  -19.9957	    7.0452	    9.5310	  -23.0300	
   40.0000	 2.5000E-6	 2.5060E-6	 2.4980E-6	 2.4950E-6	 2.5010E-6	2.142892E-6	2.140046E-6	2.142939E-6	2.148829E-6	2.139756E-6	  -19.9982	    7.0437	    9.5247	  -23.0386	
   50.0000	 2.8550E-6	 2.8560E-6	 2.8560E-6	 2.8600E-6	 2.8480E-6	2.417903E-6	2.414465E-6	2.416167E-6	2.420675E-6	2.420305E-6	  -20.0033	    6.9219	    9.5455	  -23.1078	
   60.0000	 3.1793E-6	 3.1880E-6	 3.1800E-6	 3.1680E-6	 3.1810E-6	2.664640E-6	2.671344E-6	2.661933E-6	2.665565E-6	2.659720E-6	  -20.0033	    6.9737	    9.5522	  -23.0601	
   70.0000	 3.4855E-6	 3.4770E-6	 3.4850E-6	 3.4920E-6	 3.4880E-6	2.930166E-6	2.925448E-6	2.938742E-6	2.930982E-6	2.925492E-6	  -19.9906	    6.9444	    9.5531	  -23.0816	
   80.0000	 3.7607E-6	 3.7530E-6	 3.7470E-6	 3.7640E-6	 3.7790E-6	3.159256E-6	3.181735E-6	3.164312E-6	3.153418E-6	3.137557E-6	  -19.9982	    7.0475	    9.5689	  -22.9836	
   90.0000	 4.0142E-6	 4.0240E-6	 4.0030E-6	 4.0230E-6	 4.0070E-6	3.335922E-6	3.347223E-6	3.341133E-6	3.332132E-6	3.323198E-6	  -20.0084	    6.9815	    9.5787	  -23.0230	
  100.0000	 4.2655E-6	 4.2690E-6	 4.2720E-6	 4.2540E-6	 4.2670E-6	3.549237E-6	3.566569E-6	3.550869E-6	3.536681E-6	3.542830E-6	  -20.0160	    6.9813	    9.5636	  -23.0409	
  120.0000	 4.7373E-6	 4.7250E-6	 4.7290E-6	 4.7400E-6	 4.7550E-6	3.926555E-6	3.936942E-6	3.939854E-6	3.919160E-6	3.910263E-6	  -20.0160	    6.9442	    9.5819	  -23.0480	
  140.0000	 5.1662E-6	 5.1540E-6	 5.1740E-6	 5.1660E-6	 5.1710E-6	4.260573E-6	4.262738E-6	4.254132E-6	4.253583E-6	4.271838E-6	  -20.0033	    6.9993	    9.5968	  -22.9881	
  160.0000	 5.5358E-6	 5.5330E-6	 5.5400E-6	 5.5330E-6	 5.5370E-6	4.545312E-6	4.549192E-6	4.524805E-6	4.556013E-6	4.551238E-6	  -20.0059	    6.9993	    9.5882	  -22.9981	
  180.0000	 5.8973E-6	 5.9290E-6	 5.8810E-6	 5.8960E-6	 5.8830E-6	4.806090E-6	4.830753E-6	4.809344E-6	4.796490E-6	4.787771E-6	  -20.0084	    6.9499	    9.5914	  -23.0325	
  200.0000	 6.2235E-6	 6.2350E-6	 6.2140E-6	 6.2170E-6	 6.2280E-6	5.069231E-6	5.076737E-6	5.087682E-6	5.066190E-6	5.046316E-6	  -20.0059	    7.0169	    9.5867	  -22.9864	
  220.0000	 6.4933E-6	 6.5020E-6	 6.4880E-6	 6.4990E-6	 6.4840E-6	5.276048E-6	5.281813E-6	5.274866E-6	5.271867E-6	5.275648E-6	  -20.0059	    7.0030	    9.5898	  -22.9934	
  240.0000	 6.8183E-6	 6.7960E-6	 6.8220E-6	 6.8280E-6	 6.8270E-6	5.487472E-6	5.494720E-6	5.489707E-6	5.466685E-6	5.498776E-6	  -20.0059	    7.0042	    9.5873	  -22.9954	
  260.0000	 7.0505E-6	 7.0670E-6	 7.0230E-6	 7.0550E-6	 7.0570E-6	5.680865E-6	5.665221E-6	5.678267E-6	5.705145E-6	5.674828E-6	  -20.0033	    6.9592	    9.5860	  -23.0316	
  280.0000	 7.2880E-6	 7.2710E-6	 7.2910E-6	 7.2900E-6	 7.3000E-6	5.851002E-6	5.842234E-6	5.853979E-6	5.848671E-6	5.859125E-6	  -20.0059	    6.9658	    9.5800	  -23.0336	
  300.0000	 7.5165E-6	 7.5250E-6	 7.5540E-6	 7.5070E-6	 7.4800E-6	5.998732E-6	5.989862E-6	5.999771E-6	6.009863E-6	5.995431E-6	  -20.0008	    6.9587	    9.5727	  -23.0476	
  320.0000	 7.7627E-6	 7.7670E-6	 7.7640E-6	 7.7640E-6	 7.7560E-6	6.169279E-6	6.145804E-6	6.171702E-6	6.192168E-6	6.167442E-6	  -19.9982	    6.9760	    9.5712	  -23.0361	
  340.0000	 7.9735E-6	 7.9930E-6	 7.9750E-6	 7.9790E-6	 7.9470E-6	6.257904E-6	6.242876E-6	6.269584E-6	6.271063E-6	6.248091E-6	  -20.0109	    6.9288	    9.5661	  -23.0784	
  360.0000	 8.1145E-6	 8.1350E-6	 8.1010E-6	 8.1000E-6	 8.1220E-6	6.398812E-6	6.395113E-6	6.409819E-6	6.371692E-6	6.418622E-6	  -20.0059	    6.9288	    9.5648	  -23.0799	
  380.0000	 8.3085E-6	 8.2980E-6	 8.3000E-6	 8.3260E-6	 8.3100E-6	6.496683E-6	6.511723E-6	6.502116E-6	6.488362E-6	6.484531E-6	  -20.0084	    6.9476	    9.5525	  -23.0799	
  400.0000	 8.4675E-6	 8.4610E-6	 8.4610E-6	 8.4750E-6	 8.4730E-6	6.550326E-6	6.562370E-6	6.542597E-6	6.548116E-6	6.548222E-6	  -20.0109	    6.9612	    9.5462	  -23.0768	
  420.0000	 8.6325E-6	 8.6430E-6	 8.6420E-6	 8.5900E-6	 8.6550E-6	6.715250E-6	6.730940E-6	6.706584E-6	6.710049E-6	6.713426E-6	  -20.0109	    6.9405	    9.5389	  -23.1013	
  440.0000	 8.8623E-6	 8.8680E-6	 8.8560E-6	 8.8450E-6	 8.8800E-6	6.769097E-6	6.768375E-6	6.784579E-6	6.775299E-6	6.748133E-6	  -20.0135	    6.9934	    9.5237	  -23.0785	
  460.0000	 8.9687E-6	 8.9700E-6	 8.9780E-6	 8.9750E-6	 8.9520E-6	6.811000E-6	6.816305E-6	6.807911E-6	6.802023E-6	6.817762E-6	  -20.0160	    6.9319	    9.5180	  -23.1325	
  480.0000	 9.2035E-6	 9.1600E-6	 9.1990E-6	 9.1960E-6	 9.2590E-6	6.906846E-6	6.938131E-6	6.924064E-6	6.887997E-6	6.877190E-6	  -20.0211	    6.9045	    9.5130	  -23.1596	
  500.0000	 9.3912E-6	 9.3960E-6	 9.4180E-6	 9.3730E-6	 9.3780E-6	6.904798E-6	6.918887E-6	6.932049E-6	6.887011E-6	6.881247E-6	  -20.0262	    6.9551	    9.5123	  -23.1214	
  520.0000	 9.5675E-6	 9.5460E-6	 9.5720E-6	 9.5950E-6	 9.5570E-6	6.959267E-6	6.925532E-6	6.958514E-6	6.978300E-6	6.974721E-6	  -20.0211	    7.0017	    9.5085	  -23.0899	
  540.0000	 9.8265E-6	 9.8280E-6	 9.8430E-6	 9.8390E-6	 9.7960E-6	7.010401E-6	7.004036E-6	7.029165E-6	7.026886E-6	6.981519E-6	  -20.0135	    6.9911	    9.5089	  -23.0977	
  560.0000	 1.0050E-5	 1.0090E-5	 1.0070E-5	 1.0060E-5	 9.9800E-6	7.003652E-6	7.010053E-6	6.973949E-6	7.012882E-6	7.017725E-6	  -20.0135	    6.9919	    9.4972	  -23.1109	
  580.0000	 1.0285E-5	 1.0290E-5	 1.0300E-5	 1.0280E-5	 1.0270E-5	7.062322E-6	7.053811E-6	7.064422E-6	7.083125E-6	7.047932E-6	  -20.0186	    6.9727	    9.4975	  -23.1254	
  600.0000	 1.0575E-5	 1.0590E-5	 1.0570E-5	 1.0550E-5	 1.0590E-5	7.086031E-6	7.099026E-6	7.106092E-6	7.069457E-6	7.069551E-6	  -20.0211	    6.9465	    9.5070	  -23.1343	
  620.0000	 1.0882E-5	 1.0880E-5	 1.0910E-5	 1.0890E-5	 1.0850E-5	7.126598E-6	7.098125E-6	7.143586E-6	7.121696E-6	7.142985E-6	  -20.0186	    6.9781	    9.5025	  -23.1152	
  640.0000	 1.1275E-5	 1.1240E-5	 1.1270E-5	 1.1250E-5	 1.1340E-5	7.149830E-6	7.182707E-6	7.184155E-6	7.132927E-6	7.099532E-6	  -20.0084	    6.9781	    9.5092	  -23.1074	
  660.0000	 1.1750E-5	 1.1740E-5	 1.1730E-5	 1.1770E-5	 1.1760E-5	7.190497E-6	7.178773E-6	7.201831E-6	7.186879E-6	7.194503E-6	  -20.0160	    6.9739	    9.5139	  -23.1050	
  680.0000	 1.2332E-5	 1.2360E-5	 1.2340E-5	 1.2290E-5	 1.2340E-5	7.185283E-6	7.167498E-6	7.188702E-6	7.193058E-6	7.191876E-6	  -20.0084	    6.9599	    9.5348	  -23.0913	
  700.0000	 1.2920E-5	 1.2990E-5	 1.2930E-5	 1.2860E-5	 1.2900E-5	7.208784E-6	7.177937E-6	7.224974E-6	7.235677E-6	7.196549E-6	  -20.0008	    6.9356	    9.5380	  -23.1062	
  720.0000	 1.3525E-5	 1.3590E-5	 1.3540E-5	 1.3490E-5	 1.3480E-5	7.190826E-6	7.168588E-6	7.178671E-6	7.181244E-6	7.234801E-6	  -19.9982	    6.8676	    9.5335	  -23.1638	
  740.0000	 1.4245E-5	 1.4240E-5	 1.4250E-5	 1.4240E-5	 1.4250E-5	7.244242E-6	7.249241E-6	7.258927E-6	7.240458E-6	7.228341E-6	  -19.9880	    6.8844	    9.5386	  -23.1449	
  760.0000	 1.4905E-5	 1.4930E-5	 1.4920E-5	 1.4890E-5	 1.4880E-5	7.256887E-6	7.261218E-6	7.267334E-6	7.240311E-6	7.258687E-6	  -19.9804	    6.9381	    9.5269	  -23.1174	
  780.0000	 1.5765E-5	 1.5650E-5	 1.5750E-5	 1.5800E-5	 1.5860E-5	7.254361E-6	7.260439E-6	7.260611E-6	7.250138E-6	7.246255E-6	  -19.9830	    6.9231	    9.5152	  -23.1427	
  800.0000	 1.6705E-5	 1.6760E-5	 1.6720E-5	 1.6720E-5	 1.6620E-5	7.248821E-6	7.243916E-6	7.246630E-6	7.261907E-6	7.242832E-6	  -19.9804	    6.9216	    9.5209	  -23.1372	
  820.0000	 1.7592E-5	 1.7590E-5	 1.7610E-5	 1.7570E-5	 1.7600E-5	7.267385E-6	7.236706E-6	7.269276E-6	7.262148E-6	7.301411E-6	  -19.9830	    6.9652	    9.5095	  -23.1170	
  840.0000	 1.8507E-5	 1.8480E-5	 1.8440E-5	 1.8530E-5	 1.8580E-5	7.296407E-6	7.282850E-6	7.295016E-6	7.305265E-6	7.302499E-6	  -19.9880	    6.9408	    9.5155	  -23.1287	
  860.0000	 2.1550E-5	 2.1600E-5	 2.1570E-5	 2.1510E-5	 2.1520E-5	7.276407E-6	7.283748E-6	7.269990E-6	7.274683E-6	7.277209E-6	  -19.9830	    6.9414	    9.5266	  -23.1152	
  880.0000	 2.2595E-5	 2.2570E-5	 2.2600E-5	 2.2600E-5	 2.2610E-5	7.329172E-6	7.331279E-6	7.354469E-6	7.323369E-6	7.307572E-6	  -19.9804	    7.0202	    9.5136	  -23.0698	
  900.0000	 2.3785E-5	 2.3850E-5	 2.3840E-5	 2.3720E-5	 2.3730E-5	7.359989E-6	7.349228E-6	7.357915E-6	7.364839E-6	7.367973E-6	  -19.9779	    6.9331	    9.5104	  -23.1406	
  920.0000	 2.4827E-5	 2.4780E-5	 2.4770E-5	 2.4890E-5	 2.4870E-5	7.387021E-6	7.369403E-6	7.391657E-6	7.392968E-6	7.394057E-6	  -19.9855	    6.9367	    9.4915	  -23.1602	
  940.0000	 2.5862E-5	 2.5980E-5	 2.5850E-5	 2.5780E-5	 2.5840E-5	7.395082E-6	7.396943E-6	7.425807E-6	7.385235E-6	7.372342E-6	  -19.9855	    6.9029	    9.5041	  -23.1713	
  960.0000	 2.6902E-5	 2.6890E-5	 2.6930E-5	 2.6860E-5	 2.6930E-5	7.439485E-6	7.479664E-6	7.475468E-6	7.423921E-6	7.378887E-6	  -19.9906	    6.9856	    9.4984	  -23.1143	
  980.0000	 2.7970E-5	 2.8050E-5	 2.7890E-5	 2.7950E-5	 2.7990E-5	7.468267E-6	7.498909E-6	7.490510E-6	7.453152E-6	7.430496E-6	  -19.9906	    6.9767	    9.4782	  -23.1451	
 1000.0000	 2.8962E-5	 2.8900E-5	 2.8950E-5	 2.8940E-5	 2.9060E-5	7.570919E-6	7.575946E-6	7.577978E-6	7.568966E-6	7.560788E-6	  -19.9880	    6.9355	    9.4946	  -23.1574	
 1020.0000	 2.9965E-5	 2.9890E-5	 3.0050E-5	 2.9950E-5	 2.9970E-5	7.558739E-6	7.551460E-6	7.564222E-6	7.562046E-6	7.557229E-6	  -20.0033	    6.9261	    9.4851	  -23.1758	
 1040.0000	 3.0895E-5	 3.0850E-5	 3.0930E-5	 3.0850E-5	 3.0950E-5	7.578846E-6	7.566656E-6	7.605976E-6	7.575622E-6	7.567129E-6	  -20.0084	    6.9022	    9.4763	  -23.2047	
 1060.0000	 3.1790E-5	 3.1870E-5	 3.1730E-5	 3.1790E-5	 3.1770E-5	7.659299E-6	7.646417E-6	7.655312E-6	7.676112E-6	7.659354E-6	  -19.9982	    6.9193	    9.4750	  -23.1930	
 1080.0000	 3.2785E-5	 3.2740E-5	 3.2760E-5	 3.2710E-5	 3.2930E-5	7.662566E-6	7.666090E-6	7.657910E-6	7.660682E-6	7.665581E-6	  -19.9957	    6.8305	    9.4671	  -23.2708	
 1100.0000	 3.4577E-5	 3.4680E-5	 3.4700E-5	 3.4510E-5	 3.4420E-5	7.696355E-6	7.689614E-6	7.684246E-6	7.684477E-6	7.727082E-6	  -20.0033	    6.8762	    9.4557	  -23.2490	
