GCD Test
Bias: 5000.000000
IV_34252_008_PSS_HM_XX_DIODEQUARTER_Irradiated
Date/Time: 5/28/2021 6:32:39 PM
Sensor Name: DIODEQUARTER
Type: P
Annealing Status: Irradiated, Annealed for 80 min at 60C
Environment: RT
Tester: Andrew Kent

Time Delay per Ramp Step (s): 1.000

CV Time Delay per Measurement (s) :0.500

AC Voltage (V): 0.500

Current Number of measurements per voltage: 4.000

IV Time Delay per Measurement (s) :0.000


BiasVoltage	Bias Current_Avg	Bias Current_0	Bias Current_1	Bias Current_2	Bias Current_3	Temperature	Air_Temp	Humidity	Dewpoint	
  -10.0000	-1.279771E-7	-1.275402E-7	-1.279865E-7	-1.281342E-7	-1.282477E-7	  -20.8579	   10.0800	    5.3194	  -27.1880	
  -20.0000	-1.712514E-7	-1.716812E-7	-1.717082E-7	-1.706282E-7	-1.709881E-7	  -20.8579	   10.0483	    5.2815	  -27.2882	
  -30.0000	-2.048013E-7	-2.051052E-7	-2.048398E-7	-2.045914E-7	-2.046689E-7	  -20.8350	   10.0483	    5.2634	  -27.3251	
  -40.0000	-2.310710E-7	-2.316252E-7	-2.309018E-7	-2.309642E-7	-2.307927E-7	  -20.8095	   10.0483	    5.2634	  -27.3251	
  -50.0000	-2.535803E-7	-2.528326E-7	-2.538275E-7	-2.537510E-7	-2.539101E-7	  -20.8095	    9.9778	    5.2521	  -27.3994	
  -60.0000	-2.730285E-7	-2.724039E-7	-2.727324E-7	-2.742686E-7	-2.727090E-7	  -20.7892	    9.9778	    5.2179	  -27.4697	
  -70.0000	-2.907424E-7	-2.906732E-7	-2.913197E-7	-2.911446E-7	-2.898320E-7	  -20.7510	    9.9600	    5.1822	  -27.5565	
  -80.0000	-3.050932E-7	-3.059539E-7	-3.049653E-7	-3.048494E-7	-3.046043E-7	  -20.7510	    9.9600	    5.1822	  -27.5565	
  -90.0000	-3.211390E-7	-3.224169E-7	-3.216719E-7	-3.206231E-7	-3.198443E-7	  -20.7231	    9.9596	    5.1268	  -27.6723	
 -100.0000	-3.335730E-7	-3.335153E-7	-3.331621E-7	-3.344224E-7	-3.331921E-7	  -20.6798	    9.9441	    5.0908	  -27.7593	
 -110.0000	-3.471404E-7	-3.463178E-7	-3.473403E-7	-3.470648E-7	-3.478385E-7	  -20.6366	    9.9433	    5.0642	  -27.8161	
 -120.0000	-3.604060E-7	-3.607281E-7	-3.610584E-7	-3.603260E-7	-3.595115E-7	  -20.6366	    9.9433	    5.0642	  -27.8161	
 -130.0000	-3.712955E-7	-3.727376E-7	-3.711783E-7	-3.704774E-7	-3.707887E-7	  -20.5883	    9.9967	    5.0171	  -27.8780	
 -140.0000	-3.803028E-7	-3.793494E-7	-3.804726E-7	-3.804098E-7	-3.809793E-7	  -20.5476	   10.0061	    4.9883	  -27.9330	
 -150.0000	-3.943115E-7	-3.940839E-7	-3.946211E-7	-3.945275E-7	-3.940136E-7	  -20.5476	   10.0061	    4.9883	  -27.9330	
 -160.0000	-4.048840E-7	-4.051653E-7	-4.050804E-7	-4.056883E-7	-4.036021E-7	  -20.5120	    9.9981	    4.9583	  -28.0035	
 -170.0000	-4.150395E-7	-4.162605E-7	-4.145255E-7	-4.140431E-7	-4.153289E-7	  -20.4764	   10.0187	    4.9197	  -28.0724	
 -180.0000	-4.244342E-7	-4.244503E-7	-4.247483E-7	-4.249641E-7	-4.235739E-7	  -20.4179	   10.0147	    4.8681	  -28.1881	
 -190.0000	-4.314911E-7	-4.321314E-7	-4.313838E-7	-4.313564E-7	-4.310930E-7	  -20.4179	   10.0147	    4.8681	  -28.1881	
 -200.0000	-4.436729E-7	-4.442437E-7	-4.430392E-7	-4.430291E-7	-4.443798E-7	  -20.3696	   10.0147	    4.8577	  -28.2110	
 -210.0000	-4.561066E-7	-4.556915E-7	-4.567342E-7	-4.565210E-7	-4.554796E-7	  -20.3289	   10.0374	    4.8381	  -28.2381	
 -220.0000	-4.636194E-7	-4.637771E-7	-4.638640E-7	-4.637586E-7	-4.630779E-7	  -20.3289	   10.0374	    4.8381	  -28.2381	
 -230.0000	-4.737473E-7	-4.725215E-7	-4.723626E-7	-4.750507E-7	-4.750546E-7	  -20.2627	   10.0107	    4.8074	  -28.3252	
 -240.0000	-4.841045E-7	-4.842211E-7	-4.839064E-7	-4.835279E-7	-4.847628E-7	  -20.2271	    9.9610	    4.7723	  -28.4389	
 -250.0000	-4.921139E-7	-4.916186E-7	-4.921010E-7	-4.925063E-7	-4.922297E-7	  -20.1661	    9.9437	    4.7577	  -28.4839	
 -260.0000	-5.022314E-7	-5.030606E-7	-5.022024E-7	-5.017135E-7	-5.019492E-7	  -20.1661	    9.9437	    4.7577	  -28.4839	
 -270.0000	-5.123263E-7	-5.123543E-7	-5.121308E-7	-5.116416E-7	-5.131784E-7	  -20.1178	    9.8805	    4.7252	  -28.6023	
 -280.0000	-5.199139E-7	-5.190257E-7	-5.198381E-7	-5.199548E-7	-5.208370E-7	  -20.0644	    9.8763	    4.7106	  -28.6382	
 -290.0000	-5.288828E-7	-5.272694E-7	-5.299308E-7	-5.293515E-7	-5.289793E-7	  -20.0644	    9.8763	    4.7106	  -28.6382	
 -300.0000	-5.365731E-7	-5.348481E-7	-5.376560E-7	-5.369579E-7	-5.368306E-7	  -20.0287	    9.8115	    4.7027	  -28.7024	
 -310.0000	-5.428611E-7	-5.434271E-7	-5.439930E-7	-5.424406E-7	-5.415837E-7	  -19.9880	    9.8721	    4.6357	  -28.8120	
 -320.0000	-5.520540E-7	-5.522422E-7	-5.509839E-7	-5.523406E-7	-5.526494E-7	  -19.9397	    9.8721	    4.6357	  -28.8120	
 -330.0000	-5.634906E-7	-5.622769E-7	-5.633465E-7	-5.643594E-7	-5.639797E-7	  -19.9397	    9.8811	    4.6325	  -28.8128	
 -340.0000	-5.708469E-7	-5.718613E-7	-5.705406E-7	-5.697991E-7	-5.711865E-7	  -19.9168	    9.8811	    4.6082	  -28.8688	
 -350.0000	-5.842650E-7	-5.836403E-7	-5.826510E-7	-5.850530E-7	-5.857158E-7	  -19.8863	    9.8472	    4.6224	  -28.8602	
 -360.0000	-5.916299E-7	-5.895728E-7	-5.911972E-7	-5.925863E-7	-5.931633E-7	  -19.8863	    9.8472	    4.6224	  -28.8602	
 -370.0000	-5.951006E-7	-5.952464E-7	-5.954720E-7	-5.938099E-7	-5.958741E-7	  -19.8481	    9.8904	    4.6192	  -28.8367	
 -380.0000	-6.070876E-7	-6.058129E-7	-6.085880E-7	-6.072195E-7	-6.067298E-7	  -19.8252	    9.8746	    4.6161	  -28.8552	
 -390.0000	-6.105533E-7	-6.114630E-7	-6.105349E-7	-6.106269E-7	-6.095885E-7	  -19.7820	    9.8871	    4.5920	  -28.9018	
 -400.0000	-6.190101E-7	-6.184860E-7	-6.191660E-7	-6.196797E-7	-6.187087E-7	  -19.7820	    9.8871	    4.5920	  -28.9018	
 -410.0000	-6.284710E-7	-6.298644E-7	-6.280474E-7	-6.281946E-7	-6.277776E-7	  -19.7438	    9.8600	    4.5949	  -28.9146	
 -420.0000	-6.361114E-7	-6.352808E-7	-6.372686E-7	-6.366668E-7	-6.352292E-7	  -19.7260	    9.8259	    4.5746	  -28.9858	
 -430.0000	-6.412960E-7	-6.412700E-7	-6.405052E-7	-6.418056E-7	-6.416032E-7	  -19.7260	    9.8259	    4.5746	  -28.9858	
 -440.0000	-6.482074E-7	-6.493997E-7	-6.490694E-7	-6.474255E-7	-6.469350E-7	  -19.7006	    9.7999	    4.5259	  -29.1178	
 -450.0000	-6.592653E-7	-6.585699E-7	-6.573704E-7	-6.592223E-7	-6.618986E-7	  -19.6879	    9.7996	    4.5187	  -29.1351	
 -460.0000	-6.671733E-7	-6.657976E-7	-6.664840E-7	-6.667250E-7	-6.696866E-7	  -19.6803	    9.7957	    4.4782	  -29.2332	
 -470.0000	-6.711460E-7	-6.711403E-7	-6.694182E-7	-6.725422E-7	-6.714835E-7	  -19.6803	    9.7957	    4.4782	  -29.2332	
 -480.0000	-6.787028E-7	-6.781926E-7	-6.771220E-7	-6.784298E-7	-6.810670E-7	  -19.6574	    9.8341	    4.4330	  -29.3134	
 -490.0000	-6.878181E-7	-6.888014E-7	-6.874992E-7	-6.881284E-7	-6.868436E-7	  -19.6395	    9.7860	    4.4190	  -29.3808	
 -500.0000	-6.915137E-7	-6.905019E-7	-6.913624E-7	-6.926247E-7	-6.915659E-7	  -19.6395	    9.7860	    4.4190	  -29.3808	
 -510.0000	-6.996588E-7	-7.009658E-7	-6.997346E-7	-7.000310E-7	-6.979038E-7	  -19.6345	    9.8229	    4.4054	  -29.3873	
 -520.0000	-7.037278E-7	-7.040592E-7	-7.046949E-7	-7.016430E-7	-7.045139E-7	  -19.6268	    9.7669	    4.3944	  -29.4536	
 -530.0000	-7.101319E-7	-7.098608E-7	-7.089131E-7	-7.095906E-7	-7.121629E-7	  -19.6345	    9.8433	    4.3485	  -29.5103	
 -540.0000	-7.202713E-7	-7.179478E-7	-7.211358E-7	-7.207097E-7	-7.212917E-7	  -19.6345	    9.8433	    4.3485	  -29.5103	
 -550.0000	-7.299068E-7	-7.291063E-7	-7.311255E-7	-7.301186E-7	-7.292768E-7	  -19.6421	    9.8433	    4.2979	  -29.6339	
 -560.0000	-7.381610E-7	-7.397995E-7	-7.396860E-7	-7.374783E-7	-7.356801E-7	  -19.6497	    9.7823	    4.2552	  -29.7823	
 -570.0000	-7.448089E-7	-7.448045E-7	-7.441234E-7	-7.441205E-7	-7.461873E-7	  -19.6497	    9.7823	    4.2552	  -29.7823	
 -580.0000	-7.489889E-7	-7.482217E-7	-7.494540E-7	-7.487509E-7	-7.495291E-7	  -19.6548	    9.7862	    4.2217	  -29.8629	
 -590.0000	-7.580100E-7	-7.582582E-7	-7.603119E-7	-7.584650E-7	-7.550047E-7	  -19.6599	    9.7837	    4.1872	  -29.9510	
 -600.0000	-7.618811E-7	-7.632393E-7	-7.610939E-7	-7.619514E-7	-7.612396E-7	  -19.6777	    9.7695	    4.1502	  -30.0543	
 -610.0000	-7.664650E-7	-7.643802E-7	-7.667288E-7	-7.676820E-7	-7.670690E-7	  -19.6777	    9.7695	    4.1502	  -30.0543	
 -620.0000	-7.698106E-7	-7.701204E-7	-7.703333E-7	-7.684576E-7	-7.703312E-7	  -19.6853	    9.7331	    4.1094	  -30.1838	
 -630.0000	-7.722983E-7	-7.721222E-7	-7.716707E-7	-7.733543E-7	-7.720462E-7	  -19.6930	    9.7463	    4.0851	  -30.2369	
 -640.0000	-7.770366E-7	-7.781173E-7	-7.773581E-7	-7.761900E-7	-7.764812E-7	  -19.6930	    9.7463	    4.0851	  -30.2369	
 -650.0000	-7.859582E-7	-7.850645E-7	-7.850276E-7	-7.851918E-7	-7.885488E-7	  -19.7057	    9.6886	    4.0427	  -30.3868	
 -660.0000	-7.917091E-7	-7.937243E-7	-7.909850E-7	-7.914952E-7	-7.906319E-7	  -19.7184	    9.7456	    4.0259	  -30.3903	
 -670.0000	-7.972543E-7	-7.986123E-7	-7.958914E-7	-7.982264E-7	-7.962869E-7	  -19.7413	    9.7710	    3.9984	  -30.4442	
 -680.0000	-8.057211E-7	-8.050138E-7	-8.065182E-7	-8.063147E-7	-8.050377E-7	  -19.7413	    9.7710	    3.9984	  -30.4442	
 -690.0000	-8.075927E-7	-8.062351E-7	-8.074468E-7	-8.089260E-7	-8.077629E-7	  -19.7642	    9.7710	    3.9608	  -30.5432	
 -700.0000	-8.082972E-7	-8.102853E-7	-8.087848E-7	-8.077429E-7	-8.063759E-7	  -19.7820	    9.7438	    3.9323	  -30.6377	
 -710.0000	-8.152620E-7	-8.137316E-7	-8.171095E-7	-8.160433E-7	-8.141636E-7	  -19.7820	    9.7438	    3.9323	  -30.6377	
 -720.0000	-8.232665E-7	-8.216603E-7	-8.223936E-7	-8.237375E-7	-8.252746E-7	  -19.7947	    9.7102	    3.8925	  -30.7676	
 -730.0000	-8.272745E-7	-8.277008E-7	-8.277328E-7	-8.273186E-7	-8.263458E-7	  -19.8100	    9.7138	    3.8627	  -30.8451	
 -740.0000	-8.291604E-7	-8.310392E-7	-8.296771E-7	-8.291632E-7	-8.267622E-7	  -19.8354	    9.6895	    3.8251	  -30.9642	
 -750.0000	-8.392049E-7	-8.382749E-7	-8.401349E-7	-8.405096E-7	-8.379004E-7	  -19.8354	    9.6895	    3.8251	  -30.9642	
 -760.0000	-8.434227E-7	-8.442696E-7	-8.449787E-7	-8.427974E-7	-8.416450E-7	  -19.8532	    9.7526	    3.8188	  -30.9373	
 -770.0000	-8.431011E-7	-8.438930E-7	-8.451728E-7	-8.418869E-7	-8.414519E-7	  -19.8736	    9.8057	    3.8071	  -30.9322	
 -780.0000	-8.466547E-7	-8.467058E-7	-8.482778E-7	-8.464904E-7	-8.451449E-7	  -19.8736	    9.8057	    3.8071	  -30.9322	
 -790.0000	-8.543769E-7	-8.571388E-7	-8.543603E-7	-8.538591E-7	-8.521492E-7	  -19.9041	    9.8095	    3.7615	  -31.0549	
 -800.0000	-8.554496E-7	-8.525569E-7	-8.573417E-7	-8.563848E-7	-8.555150E-7	  -19.9117	    9.8373	    3.7492	  -31.0696	
 -810.0000	-8.629694E-7	-8.627521E-7	-8.616701E-7	-8.624758E-7	-8.649798E-7	  -19.9372	    9.7831	    3.7261	  -31.1717	
 -820.0000	-8.649556E-7	-8.648722E-7	-8.651585E-7	-8.640781E-7	-8.657137E-7	  -19.9372	    9.7831	    3.7261	  -31.1717	
 -830.0000	-8.734912E-7	-8.748291E-7	-8.751367E-7	-8.736091E-7	-8.703900E-7	  -19.9601	    9.7831	    3.6989	  -31.2479	
 -840.0000	-8.776527E-7	-8.768081E-7	-8.773283E-7	-8.781223E-7	-8.783523E-7	  -19.9728	    9.7585	    3.6999	  -31.2624	
 -850.0000	-8.834402E-7	-8.857161E-7	-8.860239E-7	-8.821145E-7	-8.799063E-7	  -19.9728	    9.7585	    3.6999	  -31.2624	
 -860.0000	-8.869784E-7	-8.874636E-7	-8.872814E-7	-8.881677E-7	-8.850008E-7	  -19.9982	    9.7461	    3.6882	  -31.3039	
 -870.0000	-8.896685E-7	-8.911031E-7	-8.873330E-7	-8.920796E-7	-8.881582E-7	  -20.0084	    9.7307	    3.6714	  -31.3619	
 -880.0000	-8.930292E-7	-8.918585E-7	-8.940269E-7	-8.920844E-7	-8.941469E-7	  -20.0287	    9.6250	    3.6689	  -31.4428	
 -890.0000	-8.963444E-7	-8.975539E-7	-8.961874E-7	-8.966359E-7	-8.950005E-7	  -20.0287	    9.6250	    3.6689	  -31.4428	
 -900.0000	-9.040801E-7	-9.022461E-7	-9.046649E-7	-9.048373E-7	-9.045719E-7	  -20.0516	    9.6919	    3.6591	  -31.4239	
 -910.0000	-9.102310E-7	-9.077842E-7	-9.117532E-7	-9.107265E-7	-9.106599E-7	  -20.0720	    9.7198	    3.6660	  -31.3848	
 -920.0000	-9.166657E-7	-9.148151E-7	-9.182807E-7	-9.167132E-7	-9.168538E-7	  -20.0720	    9.7198	    3.6660	  -31.3848	
 -930.0000	-9.223922E-7	-9.213153E-7	-9.236121E-7	-9.223697E-7	-9.222718E-7	  -20.0822	    9.7183	    3.6496	  -31.4324	
 -940.0000	-9.256081E-7	-9.278818E-7	-9.265319E-7	-9.246756E-7	-9.233431E-7	  -20.0872	    9.7294	    3.6461	  -31.4346	
 -950.0000	-9.242808E-7	-9.271473E-7	-9.261835E-7	-9.226947E-7	-9.210979E-7	  -20.1051	    9.6990	    3.6148	  -31.5452	
 -960.0000	-9.300777E-7	-9.293063E-7	-9.302121E-7	-9.307423E-7	-9.300499E-7	  -20.1051	    9.6990	    3.6148	  -31.5452	
 -970.0000	-9.378987E-7	-9.368555E-7	-9.385473E-7	-9.371632E-7	-9.390287E-7	  -20.1152	    9.6391	    3.5800	  -31.6869	
 -980.0000	-9.384091E-7	-9.377474E-7	-9.388814E-7	-9.370249E-7	-9.399828E-7	  -20.1229	    9.6763	    3.5677	  -31.6968	
 -990.0000	-9.489949E-7	-9.504133E-7	-9.470803E-7	-9.497687E-7	-9.487175E-7	  -20.1229	    9.6763	    3.5677	  -31.6968	
-1000.0000	-9.540807E-7	-9.528754E-7	-9.519902E-7	-9.553729E-7	-9.560842E-7	  -20.1508	    9.7154	    3.5338	  -31.7682	
